Time,lat_estimated,lon_estimated,latitude,longitude,RealTime,CalculationTime,MeasuredVelocity,FilteredVelocity,Roll,SteeringAngle,RollRate,gy,gz,ax,ay,az,imu_read_timing,v_estimated,yaw_estimated,heading_estimated,x_estimated,y_estimated,GPS_timestamp,x_GPS,y_GPS,theta_GPS,theta_GPS_noUnwrap,status,NMEA timestamp
0.05954,57.68810483,11.97968050,57.68810483,11.97968050,13:16:07.083353,0.05929,0.00000,0.00000,-0.00006,0.00000,-0.00198,0.00490,-0.00279,0.11315,-0.19294,0.96118,0.00001,0.00000,0.00000,0.00000,0.15850,0.00000,0.00000,0.15850,0.00000,0.00000,0.00000,A,131607.00
0.07271,57.68810483,11.97968050,57.68810483,11.97968050,13:16:07.096421,0.01172,0.00000,0.00000,-0.00010,0.00000,0.00031,0.00001,0.00317,0.11218,-0.19453,0.96148,0.05912,0.00010,-0.00000,0.00000,0.29093,-0.03296,0.00000,0.15850,0.00000,0.00000,0.00000,A,131607.00
0.08380,57.68810483,11.97968050,57.68810483,11.97968050,13:16:07.107511,0.00973,0.00000,0.00000,-0.00011,0.00000,0.00290,0.00154,-0.00187,0.11297,-0.19544,0.96356,0.07241,0.00010,0.00000,0.00000,0.29093,-0.03296,0.00000,0.15850,0.00000,0.00000,0.00000,A,131607.00
0.09463,57.68810483,11.97968050,57.68810483,11.97968050,13:16:07.118337,0.00946,0.00000,0.00000,-0.00015,0.00000,-0.00091,-0.00152,-0.00050,0.11346,-0.19459,0.96282,0.08309,0.00010,-0.00000,0.00000,0.29093,-0.03296,0.00000,0.15850,0.00000,0.00000,0.00000,A,131607.00
0.10550,57.68810483,11.97968050,57.68810483,11.97968050,13:16:07.129216,0.00951,0.00000,0.00000,-0.00020,0.00000,-0.00214,0.00215,-0.00355,0.11346,-0.19569,0.96038,0.09341,0.00010,-0.00000,0.00000,0.29094,-0.03296,0.00000,0.15850,0.00000,0.00000,0.00000,A,131607.00
0.12328,57.68810483,11.97968050,57.68810483,11.97968050,13:16:07.146995,0.01641,0.00000,0.00000,-0.00020,0.00000,0.00260,-0.00167,-0.00080,0.11425,-0.19276,0.96203,0.10481,0.00010,0.00000,0.00000,0.29094,-0.03296,0.10550,0.15850,0.00000,0.00000,0.00000,A,131607.10
0.13271,57.68810483,11.97968050,57.68810483,11.97968050,13:16:07.156426,0.00799,0.00000,0.00000,-0.00022,0.00000,0.00168,-0.00243,0.00134,0.11175,-0.19233,0.96081,0.12304,0.00010,0.00000,0.00000,0.29094,-0.03296,0.10550,0.15850,0.00000,0.00000,0.00000,A,131607.10
0.14475,57.68810483,11.97968050,57.68810483,11.97968050,13:16:07.168464,0.00985,0.00000,0.00000,-0.00021,0.00000,0.00244,-0.00182,-0.00034,0.11395,-0.19447,0.96148,0.13232,0.00010,0.00000,0.00000,0.29094,-0.03296,0.10550,0.15850,0.00000,0.00000,0.00000,A,131607.10
0.15668,57.68810483,11.97968050,57.68810483,11.97968050,13:16:07.180399,0.01053,0.00000,0.00000,-0.00021,0.00000,0.00199,-0.00106,-0.00050,0.11480,-0.19294,0.96112,0.14389,0.00010,0.00000,0.00000,0.29094,-0.03296,0.10550,0.15850,0.00000,0.00000,0.00000,A,131607.10
0.16532,57.68810483,11.97968050,57.68810483,11.97968050,13:16:07.189035,0.00722,0.00000,0.00000,-0.00023,0.00000,0.00000,0.00169,0.00057,0.11224,-0.19355,0.96215,0.15555,0.00010,0.00000,0.00000,0.29094,-0.03296,0.10550,0.15850,0.00000,0.00000,0.00000,A,131607.10
0.17771,57.68810483,11.97968050,57.68810483,11.97968050,13:16:07.201421,0.00943,0.00000,0.00000,-0.00026,0.00000,-0.00107,-0.00213,-0.00111,0.11395,-0.19270,0.96221,0.16571,0.00010,0.00000,0.00000,0.29094,-0.03296,0.10550,0.15850,0.00000,0.00000,0.00000,A,131607.10
0.18956,57.68810483,11.97968050,57.68810483,11.97968050,13:16:07.213273,0.01045,0.00000,0.00000,-0.00028,0.00000,0.00153,-0.00152,0.00088,0.11309,-0.19233,0.96276,0.17650,0.00010,0.00000,0.00000,0.29094,-0.03296,0.10550,0.15850,0.00000,0.00000,0.00000,A,131607.10
0.20277,57.68810483,11.97968050,57.68810483,11.97968050,13:16:07.226484,0.01183,0.00000,0.00000,-0.00028,0.00000,0.00183,0.00123,0.00134,0.11346,-0.19532,0.96148,0.18888,0.00010,0.00000,0.00000,0.29094,-0.03296,0.10550,0.15850,0.00000,0.00000,0.00000,A,131607.10
0.21172,57.68810483,11.97968050,57.68810483,11.97968050,13:16:07.235433,0.00759,0.00000,0.00000,-0.00028,0.00000,0.00244,-0.00106,-0.00263,0.11352,-0.19343,0.96197,0.20154,0.00010,0.00000,0.00000,0.29095,-0.03296,0.10550,0.15850,0.00000,0.00000,0.00000,A,131607.10
0.22186,57.68810483,11.97968050,57.68810483,11.97968050,13:16:07.245579,0.00751,0.00000,0.00000,-0.00028,0.00000,0.00321,-0.00289,0.00225,0.11328,-0.19148,0.96051,0.21176,0.00010,0.00000,0.00000,0.29095,-0.03296,0.10550,0.15850,0.00000,0.00000,0.00000,A,131607.10
0.23285,57.68810483,11.97968050,57.68810483,11.97968050,13:16:07.256553,0.00798,0.00000,0.00000,-0.00029,0.00000,0.00183,0.00032,-0.00340,0.11273,-0.19441,0.96112,0.22317,0.00010,0.00000,0.00000,0.29095,-0.03296,0.10550,0.15850,0.00000,0.00000,0.00000,A,131607.10
0.24242,57.68810483,11.97968050,57.68810483,11.97968050,13:16:07.266134,0.00736,0.00000,0.00000,-0.00029,0.00000,0.00199,-0.00014,-0.00004,0.11450,-0.19380,0.96288,0.23247,0.00010,0.00000,0.00000,0.29095,-0.03296,0.10550,0.15850,0.00000,0.00000,0.00000,A,131607.10
0.25318,57.68810483,11.97968050,57.68810483,11.97968050,13:16:07.276902,0.00789,0.00000,0.00000,-0.00031,0.00000,0.00107,0.00184,-0.00172,0.11499,-0.19410,0.96258,0.24272,0.00010,0.00000,0.00000,0.29095,-0.03296,0.10550,0.15850,0.00000,0.00000,0.00000,A,131607.10
0.26290,57.68810483,11.97968050,57.68810483,11.97968050,13:16:07.286607,0.00740,0.00000,0.00000,-0.00032,0.00000,0.00122,-0.00090,0.00134,0.11608,-0.19313,0.96417,0.25294,0.00010,0.00000,0.00000,0.29095,-0.03296,0.10550,0.15850,0.00000,0.00000,0.00000,A,131607.10
0.27291,57.68810483,11.97968050,57.68810483,11.97968050,13:16:07.296624,0.00724,0.00000,0.00000,-0.00034,0.00000,0.00077,-0.00167,0.00561,0.11309,-0.19465,0.96392,0.26314,0.00010,0.00000,0.00000,0.29095,-0.03296,0.10550,0.15850,0.00000,0.00000,0.00000,A,131607.10
0.28322,57.68810483,11.97968050,57.68810483,11.97968050,13:16:07.306923,0.00736,0.00000,0.00000,-0.00037,0.00000,-0.00046,0.00139,0.00668,0.11505,-0.19270,0.96221,0.27329,0.00010,0.00000,0.00000,0.29095,-0.03296,0.10550,0.15850,0.00000,0.00000,0.00000,A,131607.10
0.29342,57.68810483,11.97968050,57.68810483,11.97968050,13:16:07.317134,0.00738,0.00000,0.00000,-0.00039,0.00000,0.00077,-0.00304,0.00027,0.11193,-0.19343,0.96362,0.28347,0.00010,0.00000,0.00000,0.29095,-0.03296,0.10550,0.15850,0.00000,0.00000,0.00000,A,131607.10
0.30878,57.68810483,11.97968050,57.68810483,11.97968050,13:16:07.332480,0.01256,0.00000,0.00000,-0.00042,0.00000,-0.00046,-0.00060,0.00149,0.11499,-0.19355,0.96087,0.29452,0.00010,0.00000,0.00000,0.29095,-0.03296,0.29342,0.15850,0.00000,0.00000,0.00000,A,131607.20
0.31933,57.68810483,11.97968050,57.68810483,11.97968050,13:16:07.343044,0.00870,0.00000,0.00000,-0.00042,0.00000,0.00290,-0.00121,0.00164,0.11535,-0.19233,0.96362,0.30877,0.00010,0.00000,0.00000,0.29096,-0.03296,0.29342,0.15850,0.00000,0.00000,0.00000,A,131607.20
0.32881,57.68810483,11.97968050,57.68810483,11.97968050,13:16:07.352518,0.00809,0.00000,0.00000,-0.00042,0.00000,0.00183,0.00001,-0.00019,0.11261,-0.19392,0.95904,0.31868,0.00010,0.00000,0.00000,0.29096,-0.03296,0.29342,0.15850,0.00000,0.00000,0.00000,A,131607.20
0.33809,57.68810483,11.97968050,57.68810483,11.97968050,13:16:07.361850,0.00719,0.00000,0.00000,-0.00041,0.00000,0.00336,-0.00167,-0.00233,0.11376,-0.19294,0.96112,0.32845,0.00010,0.00000,0.00000,0.29096,-0.03296,0.29342,0.15850,0.00000,0.00000,0.00000,A,131607.20
0.34868,57.68810483,11.97968050,57.68810483,11.97968050,13:16:07.372362,0.00759,0.00000,0.00000,-0.00041,0.00000,0.00244,0.00093,-0.00095,0.11468,-0.19166,0.96136,0.33861,0.00010,0.00000,0.00000,0.29096,-0.03296,0.29342,0.15850,0.00000,0.00000,0.00000,A,131607.20
0.35947,57.68810483,11.97968050,57.68810483,11.97968050,13:16:07.383187,0.00819,0.00000,0.00000,-0.00043,0.00000,0.00138,-0.00243,0.00027,0.11425,-0.19453,0.96349,0.34879,0.00010,0.00000,0.00000,0.29096,-0.03296,0.29342,0.15850,0.00000,0.00000,0.00000,A,131607.20
0.36950,57.68810483,11.97968050,57.68810483,11.97968050,13:16:07.393188,0.00795,0.00000,0.00000,-0.00043,0.00000,0.00046,-0.00381,-0.00034,0.11486,-0.19367,0.96124,0.35940,0.00010,0.00000,0.00000,0.29096,-0.03296,0.29342,0.15850,0.00000,0.00000,0.00000,A,131607.20
0.37892,57.68810483,11.97968050,57.68810483,11.97968050,13:16:07.402631,0.00710,0.00000,0.00000,-0.00047,0.00000,-0.00137,-0.00228,0.00195,0.11169,-0.19386,0.96044,0.36940,0.00010,0.00000,0.00000,0.29096,-0.03296,0.29342,0.15850,0.00000,0.00000,0.00000,A,131607.20
0.38909,57.68810483,11.97968050,57.68810483,11.97968050,13:16:07.412812,0.00701,0.00000,0.00000,-0.00046,0.00000,0.00351,0.00276,-0.00416,0.11261,-0.19355,0.96142,0.37953,0.00010,0.00000,0.00000,0.29096,-0.03296,0.29342,0.15850,0.00000,0.00000,0.00000,A,131607.20
0.40075,57.68810483,11.97968050,57.68810483,11.97968050,13:16:07.424434,0.00849,0.00000,0.00000,-0.00049,0.00000,-0.00061,0.00093,-0.00080,0.11254,-0.19233,0.96154,0.38969,0.00010,0.00000,0.00000,0.29096,-0.03296,0.29342,0.15850,0.00000,0.00000,0.00000,A,131607.20
0.41637,57.68810483,11.97968050,57.68810483,11.97968050,13:16:07.440139,0.01383,0.00000,0.00000,-0.00052,0.00000,0.00015,0.00184,-0.00019,0.11120,-0.19355,0.96532,0.39995,0.00010,0.00000,0.00000,0.29096,-0.03296,0.40075,0.15850,0.00000,0.00000,0.00000,A,131607.30
0.42625,57.68810483,11.97968050,57.68810483,11.97968050,13:16:07.449934,0.00859,0.00000,0.00000,-0.00055,0.00000,0.00000,-0.00152,0.00012,0.11352,-0.19203,0.96081,0.41556,0.00010,0.00000,0.00000,0.29097,-0.03296,0.40075,0.15850,0.00000,0.00000,0.00000,A,131607.30
0.43594,57.68810483,11.97968050,57.68810483,11.97968050,13:16:07.459626,0.00798,0.00000,0.00000,-0.00058,0.00000,-0.00107,0.00093,-0.00019,0.11218,-0.19380,0.96307,0.42582,0.00010,0.00000,0.00000,0.29097,-0.03296,0.40075,0.15850,0.00000,0.00000,0.00000,A,131607.30
0.44565,57.68810483,11.97968050,57.68810483,11.97968050,13:16:07.469368,0.00723,0.00000,0.00000,-0.00060,0.00000,0.00015,0.00291,-0.00248,0.11438,-0.19270,0.96179,0.43584,0.00010,0.00000,0.00000,0.29097,-0.03296,0.40075,0.15850,0.00000,0.00000,0.00000,A,131607.30
0.45728,57.68810483,11.97968050,57.68810483,11.97968050,13:16:07.480973,0.00868,0.00000,0.00000,-0.00060,0.00000,0.00107,-0.00152,-0.00050,0.11273,-0.19331,0.96069,0.44698,0.00010,0.00000,0.00000,0.29097,-0.03296,0.40075,0.15850,0.00000,0.00000,0.00000,A,131607.30
0.46788,57.68810483,11.97968050,57.68810483,11.97968050,13:16:07.491565,0.00877,0.00000,0.00000,-0.00060,0.00000,0.00199,0.00032,-0.00034,0.11346,-0.19538,0.96063,0.45772,0.00010,0.00000,0.00000,0.29097,-0.03296,0.40075,0.15850,0.00000,0.00000,0.00000,A,131607.30
0.47848,57.68810483,11.97968050,57.68810483,11.97968050,13:16:07.502189,0.00692,0.00000,0.00000,-0.00060,0.00000,0.00031,-0.00152,-0.00019,0.11450,-0.19587,0.96282,0.46897,0.00010,0.00000,0.00000,0.29097,-0.03296,0.40075,0.15850,0.00000,0.00000,0.00000,A,131607.30
0.48967,57.68810483,11.97968050,57.68810483,11.97968050,13:16:07.513359,0.00794,0.00000,0.00000,-0.00058,0.00000,0.00351,0.00276,0.00088,0.11193,-0.19264,0.96471,0.47959,0.00010,0.00000,0.00000,0.29097,-0.03296,0.40075,0.15850,0.00000,0.00000,0.00000,A,131607.30
0.49938,57.68810483,11.97968050,57.68810483,11.97968050,13:16:07.523106,0.00747,0.00000,0.00000,-0.00061,0.00000,-0.00321,-0.00274,-0.00080,0.11322,-0.19398,0.96325,0.48934,0.00010,0.00000,0.00000,0.29097,-0.03296,0.40075,0.15850,0.00000,0.00000,0.00000,A,131607.30
0.51536,57.68810483,11.97968050,57.68810483,11.97968050,13:16:07.539042,0.01328,0.00000,0.00000,-0.00064,0.00000,-0.00061,-0.00182,0.00088,0.11645,-0.19636,0.96197,0.49993,0.00010,0.00000,0.00000,0.29097,-0.03296,0.49938,0.15850,0.00000,0.00000,0.00000,A,131607.40
0.52561,57.68810483,11.97968050,57.68810483,11.97968050,13:16:07.549297,0.00906,0.00000,0.00000,-0.00068,0.00000,-0.00168,-0.00014,0.00012,0.11346,-0.19300,0.96099,0.51463,0.00010,0.00000,0.00000,0.29098,-0.03296,0.49938,0.15850,0.00000,0.00000,0.00000,A,131607.40
0.53531,57.68810483,11.97968050,57.68810483,11.97968050,13:16:07.558998,0.00848,0.00000,0.00000,-0.00070,0.00000,-0.00015,0.00001,-0.00065,0.11431,-0.19221,0.96447,0.52424,0.00010,0.00000,0.00000,0.29098,-0.03296,0.49938,0.15850,0.00000,0.00000,0.00000,A,131607.40
0.54451,57.68810483,11.97968050,57.68810483,11.97968050,13:16:07.568232,0.00749,0.00000,0.00000,-0.00071,0.00000,0.00015,0.00184,-0.00111,0.11566,-0.19416,0.95990,0.53470,0.00010,0.00000,0.00000,0.29098,-0.03296,0.49938,0.15850,0.00000,0.00000,0.00000,A,131607.40
0.55465,57.68810483,11.97968050,57.68810483,11.97968050,13:16:07.578345,0.00743,0.00000,0.00000,-0.00072,0.00000,0.00138,-0.00060,0.00103,0.11444,-0.19319,0.95971,0.54466,0.00010,0.00000,0.00000,0.29098,-0.03296,0.49938,0.15850,0.00000,0.00000,0.00000,A,131607.40
0.56586,57.68810483,11.97968050,57.68810483,11.97968050,13:16:07.589576,0.00846,0.00000,0.00000,-0.00074,0.00000,-0.00061,-0.00197,0.00057,0.11505,-0.19435,0.96051,0.55486,0.00010,0.00000,0.00000,0.29098,-0.03296,0.49938,0.15850,0.00000,0.00000,0.00000,A,131607.40
0.57503,57.68810483,11.97968050,57.68810483,11.97968050,13:16:07.598753,0.00746,0.00000,0.00000,-0.00078,0.00000,-0.00153,0.00215,-0.00004,0.11322,-0.19221,0.96368,0.56502,0.00010,0.00000,0.00000,0.29098,-0.03296,0.49938,0.15850,0.00000,0.00000,0.00000,A,131607.40
0.58523,57.68810483,11.97968050,57.68810483,11.97968050,13:16:07.608944,0.00745,0.00000,0.00000,-0.00081,0.00000,-0.00214,-0.00289,0.00241,0.11303,-0.19337,0.96105,0.57523,0.00010,0.00000,0.00000,0.29098,-0.03296,0.49938,0.15850,0.00000,0.00000,0.00000,A,131607.40
0.59544,57.68810483,11.97968050,57.68810483,11.97968050,13:16:07.619152,0.00748,0.00000,0.00000,-0.00081,0.00000,0.00229,-0.00228,0.00180,0.11370,-0.19276,0.96343,0.58581,0.00010,0.00000,0.00000,0.29098,-0.03296,0.49938,0.15850,0.00000,0.00000,0.00000,A,131607.40
0.60976,57.68810483,11.97968050,57.68810483,11.97968067,13:16:07.633462,0.01151,0.00000,0.00000,-0.00081,0.00000,-0.00015,-0.00029,-0.00279,0.11309,-0.19178,0.96002,0.59572,0.00010,0.00000,0.00000,0.29098,-0.03296,0.59544,0.16840,0.00000,0.00000,0.00000,A,131607.50
0.61951,57.68810483,11.97968050,57.68810483,11.97968067,13:16:07.643224,0.00846,0.00000,0.00000,-0.00085,0.00000,-0.00275,-0.00167,0.00210,0.11480,-0.19227,0.96154,0.60859,0.00017,0.00000,0.00000,0.34769,-0.03565,0.59544,0.16840,0.00000,0.00000,0.00000,A,131607.50
0.62946,57.68810483,11.97968050,57.68810483,11.97968067,13:16:07.653173,0.00823,0.00000,0.00000,-0.00085,0.00000,0.00229,0.00276,-0.00202,0.11456,-0.19313,0.96221,0.61873,0.00017,0.00000,0.00000,0.34769,-0.03565,0.59544,0.16840,0.00000,0.00000,0.00000,A,131607.50
0.63891,57.68810483,11.97968050,57.68810483,11.97968067,13:16:07.662624,0.00742,0.00000,0.00000,-0.00085,0.00000,0.00153,0.00154,-0.00141,0.11273,-0.19355,0.96124,0.62890,0.00017,0.00001,0.00000,0.34769,-0.03565,0.59544,0.16840,0.00000,0.00000,0.00000,A,131607.50
0.64903,57.68810483,11.97968050,57.68810483,11.97968067,13:16:07.672740,0.00737,0.00000,0.00000,-0.00080,0.00000,0.00596,-0.00029,-0.00233,0.11450,-0.19441,0.96343,0.63953,0.00017,0.00001,0.00000,0.34769,-0.03565,0.59544,0.16840,0.00000,0.00000,0.00000,A,131607.50
0.65916,57.68810483,11.97968050,57.68810483,11.97968067,13:16:07.682873,0.00732,0.00000,0.00000,-0.00080,0.00000,0.00153,-0.00075,0.00073,0.11297,-0.19087,0.96240,0.64926,0.00017,0.00001,0.00000,0.34769,-0.03565,0.59544,0.16840,0.00000,0.00000,0.00000,A,131607.50
0.66997,57.68810483,11.97968050,57.68810483,11.97968067,13:16:07.693688,0.00795,0.00000,0.00000,-0.00078,0.00000,0.00275,0.00093,0.00103,0.11328,-0.19245,0.96154,0.65962,0.00017,0.00001,0.00000,0.34769,-0.03565,0.59544,0.16840,0.00000,0.00000,0.00000,A,131607.50
0.68026,57.68810483,11.97968050,57.68810483,11.97968067,13:16:07.703966,0.00807,0.00000,0.00000,-0.00075,0.00000,0.00244,-0.00090,-0.00080,0.11462,-0.19422,0.96209,0.67053,0.00017,0.00001,0.00000,0.34770,-0.03565,0.59544,0.16840,0.00000,0.00000,0.00000,A,131607.50
0.68981,57.68810483,11.97968050,57.68810483,11.97968067,13:16:07.713519,0.00744,0.00000,0.00000,-0.00078,0.00000,-0.00076,0.00490,-0.00065,0.11151,-0.19416,0.95947,0.67988,0.00017,0.00001,0.00000,0.34770,-0.03565,0.59544,0.16840,0.00000,0.00000,0.00000,A,131607.50
0.69999,57.68810483,11.97968050,57.68810483,11.97968067,13:16:07.723695,0.00745,0.00000,0.00000,-0.00075,0.00000,0.00535,-0.00258,0.00149,0.11370,-0.19471,0.96173,0.68997,0.00017,0.00001,0.00000,0.34770,-0.03565,0.59544,0.16840,0.00000,0.00000,0.00000,A,131607.50
0.71452,57.68810483,11.97968050,57.68810483,11.97968067,13:16:07.738209,0.01181,0.00000,0.00000,-0.00073,0.00000,0.00275,0.00001,-0.00263,0.11181,-0.19471,0.96154,0.70012,0.00017,0.00001,0.00000,0.34770,-0.03565,0.69999,0.16840,0.00000,0.00000,0.00000,A,131607.60
0.72375,57.68810483,11.97968050,57.68810483,11.97968067,13:16:07.747464,0.00759,0.00000,0.00000,-0.00074,0.00000,-0.00015,-0.00029,-0.00065,0.11395,-0.19178,0.96002,0.71362,0.00017,0.00001,0.00000,0.34770,-0.03565,0.69999,0.16840,0.00000,0.00000,0.00000,A,131607.60
0.73370,57.68810483,11.97968050,57.68810483,11.97968067,13:16:07.757417,0.00736,0.00000,0.00000,-0.00074,0.00000,0.00031,0.00200,0.00302,0.11474,-0.19355,0.96087,0.72389,0.00017,0.00001,0.00000,0.34771,-0.03565,0.69999,0.16840,0.00000,0.00000,0.00000,A,131607.60
0.74472,57.68810483,11.97968050,57.68810483,11.97968067,13:16:07.768428,0.00820,0.00000,0.00000,-0.00074,0.00000,-0.00046,0.00184,0.00012,0.11108,-0.19300,0.96154,0.73403,0.00017,0.00001,0.00000,0.34771,-0.03565,0.69999,0.16840,0.00000,0.00000,0.00000,A,131607.60
0.75417,57.68810483,11.97968050,57.68810483,11.97968067,13:16:07.777880,0.00746,0.00000,0.00000,-0.00077,0.00000,-0.00275,-0.00045,-0.00095,0.11486,-0.19502,0.96197,0.74414,0.00017,0.00001,0.00000,0.34771,-0.03565,0.69999,0.16840,0.00000,0.00000,0.00000,A,131607.60
0.76457,57.68810483,11.97968050,57.68810483,11.97968067,13:16:07.788282,0.00767,0.00000,0.00000,-0.00078,0.00000,-0.00122,0.00077,0.00012,0.11407,-0.19447,0.96398,0.75475,0.00017,0.00001,0.00000,0.34771,-0.03565,0.69999,0.16840,0.00000,0.00000,0.00000,A,131607.60
0.77507,57.68810483,11.97968050,57.68810483,11.97968067,13:16:07.798781,0.00770,0.00000,0.00000,-0.00079,0.00000,-0.00061,-0.00197,-0.00065,0.11627,-0.19355,0.96148,0.76542,0.00017,0.00001,0.00000,0.34771,-0.03565,0.69999,0.16840,0.00000,0.00000,0.00000,A,131607.60
0.78884,57.68810483,11.97968050,57.68810483,11.97968067,13:16:07.812559,0.00728,0.00000,0.00000,-0.00081,0.00000,0.00000,-0.00060,0.00103,0.11285,-0.19398,0.96240,0.77900,0.00017,0.00001,0.00000,0.34771,-0.03565,0.69999,0.16840,0.00000,0.00000,0.00000,A,131607.60
0.79936,57.68810483,11.97968050,57.68810483,11.97968067,13:16:07.823070,0.00762,0.00000,0.00000,-0.00080,0.00000,0.00214,-0.00090,0.00409,0.11505,-0.19276,0.96191,0.78913,0.00017,0.00001,0.00000,0.34772,-0.03565,0.69999,0.16840,0.00000,0.00000,0.00000,A,131607.60
0.81374,57.68810483,11.97968050,57.68810483,11.97968050,13:16:07.837438,0.01183,0.00000,0.00000,-0.00078,0.00000,0.00260,0.00077,0.00027,0.11334,-0.19428,0.96185,0.79942,0.00017,0.00001,0.00000,0.34772,-0.03565,0.79936,0.15850,0.00000,3.14159,0.00000,A,131607.70
0.82366,57.68810483,11.97968050,57.68810483,11.97968050,13:16:07.847379,0.00858,0.00000,0.00000,-0.00078,0.00000,0.00138,-0.00350,0.00180,0.11407,-0.19306,0.96264,0.81270,0.00019,0.00001,0.00000,0.35978,-0.03654,0.79936,0.15850,0.00000,3.14159,0.00000,A,131607.70
0.83328,57.68810483,11.97968050,57.68810483,11.97968050,13:16:07.856995,0.00801,0.00000,0.00000,-0.00077,0.00000,0.00122,0.00016,-0.00111,0.11358,-0.19459,0.95819,0.82267,0.00019,0.00001,0.00000,0.35979,-0.03654,0.79936,0.15850,0.00000,3.14159,0.00000,A,131607.70
0.84285,57.68810483,11.97968050,57.68810483,11.97968050,13:16:07.866570,0.00739,0.00000,0.00000,-0.00081,0.00000,-0.00336,-0.00045,0.00348,0.11413,-0.19264,0.96081,0.83287,0.00019,0.00001,0.00000,0.35979,-0.03654,0.79936,0.15850,0.00000,3.14159,0.00000,A,131607.70
0.85306,57.68810483,11.97968050,57.68810483,11.97968050,13:16:07.876776,0.00742,0.00000,0.00000,-0.00080,0.00000,0.00229,0.00062,0.00057,0.11248,-0.19349,0.96118,0.84322,0.00019,0.00001,0.00000,0.35979,-0.03654,0.79936,0.15850,0.00000,3.14159,0.00000,A,131607.70
0.86375,57.68810483,11.97968050,57.68810483,11.97968050,13:16:07.887464,0.00794,0.00000,0.00000,-0.00082,0.00000,-0.00198,0.00077,-0.00340,0.11328,-0.19306,0.96429,0.85323,0.00019,0.00001,0.00000,0.35979,-0.03654,0.79936,0.15850,0.00000,3.14159,0.00000,A,131607.70
0.87426,57.68810483,11.97968050,57.68810483,11.97968050,13:16:07.897976,0.00825,0.00000,0.00000,-0.00085,0.00000,-0.00107,-0.00381,0.00271,0.11376,-0.19258,0.95971,0.86342,0.00019,0.00001,0.00000,0.35979,-0.03654,0.79936,0.15850,0.00000,3.14159,0.00000,A,131607.70
0.88876,57.68810483,11.97968050,57.68810483,11.97968050,13:16:07.912480,0.00720,0.00000,0.00000,-0.00087,0.00000,-0.00259,0.00062,0.00057,0.11309,-0.19264,0.96282,0.87910,0.00019,0.00001,0.00000,0.35980,-0.03654,0.79936,0.15850,0.00000,3.14159,0.00000,A,131607.70
0.89996,57.68810483,11.97968050,57.68810483,11.97968050,13:16:07.923680,0.00823,0.00000,0.00000,-0.00090,0.00000,-0.00030,0.00077,-0.00050,0.11614,-0.19593,0.96142,0.88962,0.00019,0.00001,0.00000,0.35980,-0.03654,0.79936,0.15850,0.00000,3.14159,0.00000,A,131607.70
0.91418,57.68810483,11.97968050,57.68810483,11.97968050,13:16:07.937882,0.01206,0.00000,0.00000,-0.00088,0.00000,0.00351,-0.00121,0.00225,0.11438,-0.19306,0.96447,0.89955,0.00019,0.00001,0.00000,0.35980,-0.03654,0.89996,0.15850,0.00000,0.00000,0.00000,A,131607.80
0.92271,57.68810483,11.97968050,57.68810483,11.97968050,13:16:07.946424,0.00727,0.00000,0.00000,-0.00089,0.00000,-0.00107,0.00062,0.00073,0.11376,-0.19483,0.96264,0.91292,0.00019,0.00001,0.00000,0.35980,-0.03654,0.89996,0.15850,0.00000,0.00000,0.00000,A,131607.80
0.93370,57.68810483,11.97968050,57.68810483,11.97968050,13:16:07.957407,0.00807,0.00000,0.00000,-0.00094,0.00000,-0.00443,0.00108,-0.00004,0.11132,-0.19477,0.96301,0.92355,0.00019,0.00001,0.00000,0.35980,-0.03654,0.89996,0.15850,0.00000,0.00000,0.00000,A,131607.80
0.94336,57.68810483,11.97968050,57.68810483,11.97968050,13:16:07.967077,0.00753,0.00000,0.00000,-0.00095,0.00000,0.00061,-0.00075,0.00332,0.11444,-0.19331,0.96264,0.93325,0.00019,0.00001,0.00000,0.35981,-0.03654,0.89996,0.15850,0.00000,0.00000,0.00000,A,131607.80
0.95351,57.68810483,11.97968050,57.68810483,11.97968050,13:16:07.977218,0.00748,0.00000,0.00000,-0.00096,0.00000,-0.00183,0.00093,0.00042,0.11346,-0.19483,0.96130,0.94358,0.00019,0.00001,0.00000,0.35981,-0.03654,0.89996,0.15850,0.00000,0.00000,0.00000,A,131607.80
0.96391,57.68810483,11.97968050,57.68810483,11.97968050,13:16:07.987628,0.00769,0.00000,0.00000,-0.00098,0.00000,-0.00168,0.00047,0.00149,0.11468,-0.19367,0.95916,0.95365,0.00019,0.00001,0.00000,0.35981,-0.03654,0.89996,0.15850,0.00000,0.00000,0.00000,A,131607.80
0.97566,57.68810483,11.97968050,57.68810483,11.97968050,13:16:07.999378,0.00926,0.00000,0.00000,-0.00095,0.00000,0.00306,-0.00228,-0.00080,0.11389,-0.19233,0.96105,0.96432,0.00019,0.00001,0.00000,0.35981,-0.03654,0.89996,0.15850,0.00000,0.00000,0.00000,A,131607.80
0.98511,57.68810483,11.97968050,57.68810483,11.97968050,13:16:08.008822,0.00806,0.00000,0.00000,-0.00095,0.00000,-0.00030,-0.00075,-0.00065,0.11572,-0.19361,0.96264,0.97540,0.00019,0.00001,0.00000,0.35981,-0.03654,0.89996,0.15850,0.00000,0.00000,0.00000,A,131607.80
0.99464,57.68810483,11.97968050,57.68810483,11.97968050,13:16:08.018357,0.00741,0.00000,0.00000,-0.00092,0.00000,0.00412,-0.00197,0.00012,0.11364,-0.19465,0.96319,0.98481,0.00019,0.00001,0.00000,0.35982,-0.03654,0.89996,0.15850,0.00000,0.00000,0.00000,A,131607.80
1.01048,57.68810483,11.97968050,57.68810483,11.97968050,13:16:08.034182,0.01306,0.00000,0.00000,-0.00090,0.00000,0.00306,-0.00167,-0.00172,0.11663,-0.19300,0.96471,0.99482,0.00019,0.00001,0.00000,0.35982,-0.03654,0.99464,0.15850,0.00000,0.00000,0.00000,A,131607.90
1.01994,57.68810483,11.97968050,57.68810483,11.97968050,13:16:08.043658,0.00805,0.00000,0.00000,-0.00091,0.00000,-0.00168,0.00307,0.00134,0.11480,-0.19166,0.96227,1.00990,0.00019,0.00001,0.00000,0.35982,-0.03654,0.99464,0.15850,0.00000,0.00000,0.00000,A,131607.90
1.02951,57.68810483,11.97968050,57.68810483,11.97968050,13:16:08.053211,0.00742,0.00000,0.00000,-0.00089,0.00000,0.00244,0.00200,-0.00416,0.11450,-0.19422,0.96343,1.01960,0.00019,0.00001,0.00000,0.35982,-0.03654,0.99464,0.15850,0.00000,0.00000,0.00000,A,131607.90
1.04020,57.68810483,11.97968050,57.68810483,11.97968050,13:16:08.063904,0.00794,0.00000,0.00000,-0.00089,0.00000,0.00107,0.00276,-0.00202,0.11370,-0.19349,0.96478,1.03015,0.00019,0.00001,0.00000,0.35983,-0.03654,0.99464,0.15850,0.00000,0.00000,0.00000,A,131607.90
1.04978,57.68810483,11.97968050,57.68810483,11.97968050,13:16:08.073486,0.00735,0.00000,0.00000,-0.00089,0.00000,-0.00030,-0.00029,-0.00019,0.11297,-0.19227,0.96337,1.03994,0.00019,0.00001,0.00000,0.35983,-0.03654,0.99464,0.15850,0.00000,0.00000,0.00000,A,131607.90
1.06078,57.68810483,11.97968050,57.68810483,11.97968050,13:16:08.084490,0.00818,0.00000,0.00000,-0.00085,0.00000,0.00474,-0.00029,-0.00080,0.11193,-0.19252,0.96087,1.05004,0.00019,0.00001,0.00000,0.35983,-0.03654,0.99464,0.15850,0.00000,0.00000,0.00000,A,131607.90
1.06996,57.68810483,11.97968050,57.68810483,11.97968050,13:16:08.093666,0.00718,0.00000,0.00000,-0.00083,0.00000,0.00321,-0.00029,0.00210,0.11370,-0.19282,0.96435,1.06028,0.00019,0.00001,0.00000,0.35983,-0.03654,0.99464,0.15850,0.00000,0.00000,0.00000,A,131607.90
1.08249,57.68810483,11.97968050,57.68810483,11.97968050,13:16:08.106207,0.00955,0.00000,0.00000,-0.00084,0.00000,-0.00046,0.00093,-0.00172,0.11358,-0.19355,0.96258,1.07109,0.00019,0.00001,0.00000,0.35983,-0.03654,0.99464,0.15850,0.00000,0.00000,0.00000,A,131607.90
1.09219,57.68810483,11.97968050,57.68810483,11.97968050,13:16:08.115899,0.00831,0.00000,0.00000,-0.00083,0.00000,0.00153,-0.00182,-0.00141,0.11352,-0.19428,0.96203,1.08178,0.00019,0.00001,0.00000,0.35984,-0.03654,0.99464,0.15850,0.00000,0.00000,0.00000,A,131607.90
1.10606,57.68810483,11.97968050,57.68810483,11.97968050,13:16:08.129745,0.01176,0.00000,0.00000,-0.00086,0.00000,-0.00198,-0.00075,0.00103,0.11480,-0.19361,0.96026,1.09171,0.00019,0.00001,0.00000,0.35984,-0.03654,1.09219,0.15850,0.00000,0.00000,0.00000,A,131608.00
1.11480,57.68810483,11.97968050,57.68810483,11.97968050,13:16:08.138502,0.00747,0.00000,0.00000,-0.00087,0.00000,-0.00061,0.00016,0.00195,0.11340,-0.19361,0.96209,1.10475,0.00019,0.00001,0.00000,0.35984,-0.03654,1.09219,0.15850,0.00000,0.00000,0.00000,A,131608.00
1.12572,57.68810483,11.97968050,57.68810483,11.97968050,13:16:08.149426,0.00820,0.00000,0.00000,-0.00085,0.00000,0.00199,0.00444,0.00027,0.11425,-0.19410,0.96319,1.11585,0.00019,0.00001,0.00000,0.35984,-0.03654,1.09219,0.15850,0.00000,0.00000,0.00000,A,131608.00
1.13513,57.68810483,11.97968050,57.68810483,11.97968050,13:16:08.158839,0.00742,0.00000,0.00000,-0.00084,0.00000,0.00122,0.00001,-0.00095,0.11187,-0.19380,0.96240,1.12515,0.00019,0.00001,0.00000,0.35984,-0.03654,1.09219,0.15850,0.00000,0.00000,0.00000,A,131608.00
1.14527,57.68810483,11.97968050,57.68810483,11.97968050,13:16:08.168981,0.00737,0.00000,0.00000,-0.00087,0.00000,-0.00290,-0.00060,-0.00065,0.11383,-0.19154,0.96203,1.13533,0.00019,0.00001,0.00000,0.35985,-0.03654,1.09219,0.15850,0.00000,0.00000,0.00000,A,131608.00
1.15557,57.68810483,11.97968050,57.68810483,11.97968050,13:16:08.179284,0.00744,0.00000,0.00000,-0.00087,0.00000,0.00199,0.00566,-0.00095,0.11242,-0.19374,0.96313,1.14554,0.00019,0.00001,0.00000,0.35985,-0.03654,1.09219,0.15850,0.00000,0.00000,0.00000,A,131608.00
1.16597,57.68810483,11.97968050,57.68810483,11.97968050,13:16:08.189683,0.00767,0.00000,0.00000,-0.00089,0.00000,-0.00046,0.00230,-0.00050,0.11517,-0.19428,0.96099,1.15572,0.00019,0.00001,0.00000,0.35985,-0.03654,1.09219,0.15850,0.00000,0.00000,0.00000,A,131608.00
1.17597,57.68810483,11.97968050,57.68810483,11.97968050,13:16:08.199856,0.00741,0.00000,0.00000,-0.00091,0.00000,-0.00061,-0.00075,0.00027,0.11627,-0.19166,0.96282,1.16614,0.00019,0.00001,0.00000,0.35985,-0.03654,1.09219,0.15850,0.00000,0.00000,0.00000,A,131608.00
1.18715,57.68810483,11.97968050,57.68810483,11.97968050,13:16:08.210864,0.00840,0.00000,0.00000,-0.00086,0.00000,0.00611,0.00016,0.00149,0.11566,-0.19282,0.96240,1.17618,0.00019,0.00001,0.00000,0.35985,-0.03654,1.09219,0.15850,0.00000,0.00000,0.00000,A,131608.00
1.19640,57.68810483,11.97968050,57.68810483,11.97968050,13:16:08.220111,0.00746,0.00000,0.00000,-0.00085,0.00000,0.00244,0.00123,-0.00080,0.11364,-0.19282,0.96313,1.18645,0.00019,0.00001,0.00000,0.35986,-0.03654,1.09219,0.15850,0.00000,0.00000,0.00000,A,131608.00
1.21103,57.68810483,11.97968050,57.68810483,11.97968067,13:16:08.234729,0.01191,0.00000,0.00000,-0.00088,0.00000,-0.00275,0.00062,-0.00111,0.11480,-0.19233,0.96087,1.19698,0.00019,0.00001,0.00000,0.35986,-0.03654,1.19640,0.16840,0.00000,0.00000,0.00000,A,131608.10
1.22261,57.68810483,11.97968050,57.68810483,11.97968067,13:16:08.246323,0.00973,0.00000,0.00000,-0.00087,0.00000,0.00229,0.00184,-0.00111,0.11438,-0.19258,0.96417,1.21095,0.00021,0.00001,0.00000,0.37041,-0.03684,1.19640,0.16840,0.00000,0.00000,0.00000,A,131608.10
1.23148,57.68810483,11.97968050,57.68810483,11.97968067,13:16:08.255266,0.00748,0.00000,0.00000,-0.00084,0.00000,0.00229,-0.00136,-0.00004,0.11523,-0.19367,0.96349,1.22192,0.00021,0.00001,0.00000,0.37041,-0.03684,1.19640,0.16840,0.00000,0.00000,0.00000,A,131608.10
1.24178,57.68810483,11.97968050,57.68810483,11.97968067,13:16:08.265495,0.00760,0.00000,0.00000,-0.00087,0.00000,-0.00214,0.00093,0.00134,0.11383,-0.19319,0.96282,1.23169,0.00021,0.00001,0.00000,0.37042,-0.03684,1.19640,0.16840,0.00000,0.00000,0.00000,A,131608.10
1.25196,57.68810483,11.97968050,57.68810483,11.97968067,13:16:08.275670,0.00760,0.00000,0.00000,-0.00090,0.00000,-0.00244,0.00581,-0.00309,0.11346,-0.19270,0.96356,1.24219,0.00021,0.00001,0.00000,0.37042,-0.03684,1.19640,0.16840,0.00000,0.00000,0.00000,A,131608.10
1.26174,57.68810483,11.97968050,57.68810483,11.97968067,13:16:08.285456,0.00720,0.00000,0.00000,-0.00092,0.00000,-0.00061,0.00322,-0.00080,0.11297,-0.19404,0.96185,1.25212,0.00021,0.00001,0.00000,0.37042,-0.03684,1.19640,0.16840,0.00000,0.00000,0.00000,A,131608.10
1.27208,57.68810483,11.97968050,57.68810483,11.97968067,13:16:08.295799,0.00728,0.00000,0.00000,-0.00094,0.00000,-0.00153,0.00184,-0.00172,0.11541,-0.19392,0.96234,1.26225,0.00021,0.00001,0.00000,0.37042,-0.03684,1.19640,0.16840,0.00000,0.00000,0.00000,A,131608.10
1.28251,57.68810483,11.97968050,57.68810483,11.97968067,13:16:08.306220,0.00752,0.00000,0.00000,-0.00094,0.00000,0.00122,0.00169,-0.00218,0.11364,-0.19398,0.96136,1.27240,0.00021,0.00001,0.00000,0.37042,-0.03684,1.19640,0.16840,0.00000,0.00000,0.00000,A,131608.10
1.29368,57.68810483,11.97968050,57.68810483,11.97968067,13:16:08.317399,0.00851,0.00000,0.00000,-0.00095,0.00000,0.00015,-0.00106,0.00134,0.11291,-0.19453,0.96185,1.28260,0.00021,0.00001,0.00000,0.37043,-0.03684,1.19640,0.16840,0.00000,0.00000,0.00000,A,131608.10
1.31310,57.68810483,11.97968050,57.68810483,11.97968050,13:16:08.336797,0.01145,0.00000,0.00000,-0.00096,0.00000,-0.00107,-0.00060,-0.00065,0.11419,-0.19294,0.96142,1.29908,0.00021,0.00001,0.00000,0.37043,-0.03684,1.29368,0.15850,0.00000,3.14159,0.00000,A,131608.20
1.32303,57.68810483,11.97968050,57.68810483,11.97968050,13:16:08.346745,0.00864,0.00000,0.00000,-0.00096,0.00000,0.00138,-0.00029,0.00195,0.11401,-0.19398,0.95959,1.31192,0.00023,0.00001,0.00000,0.36728,-0.03694,1.29368,0.15850,0.00000,3.14159,0.00000,A,131608.20
1.33299,57.68810483,11.97968050,57.68810483,11.97968050,13:16:08.356673,0.00841,0.00000,0.00000,-0.00098,0.00000,-0.00259,-0.00152,-0.00050,0.11438,-0.19258,0.96203,1.32248,0.00023,0.00001,0.00000,0.36728,-0.03694,1.29368,0.15850,0.00000,3.14159,0.00000,A,131608.20
1.34284,57.68810483,11.97968050,57.68810483,11.97968050,13:16:08.366527,0.00816,0.00000,0.00000,-0.00104,0.00000,-0.00595,0.00368,-0.00172,0.11248,-0.19294,0.96258,1.33251,0.00023,0.00001,0.00000,0.36728,-0.03694,1.29368,0.15850,0.00000,3.14159,0.00000,A,131608.20
1.35247,57.68810483,11.97968050,57.68810483,11.97968050,13:16:08.376178,0.00753,0.00000,0.00000,-0.00103,0.00000,0.00092,0.00001,0.00271,0.11682,-0.19148,0.96173,1.34246,0.00023,0.00001,0.00000,0.36729,-0.03694,1.29368,0.15850,0.00000,3.14159,0.00000,A,131608.20
1.36373,57.68810483,11.97968050,57.68810483,11.97968050,13:16:08.387409,0.00862,0.00000,0.00000,-0.00104,0.00000,0.00031,0.00062,-0.00034,0.11273,-0.19306,0.95983,1.35251,0.00023,0.00001,0.00000,0.36729,-0.03694,1.29368,0.15850,0.00000,3.14159,0.00000,A,131608.20
1.37364,57.68810483,11.97968050,57.68810483,11.97968050,13:16:08.397320,0.00824,0.00000,0.00000,-0.00105,0.00000,-0.00107,-0.00060,-0.00187,0.11431,-0.19361,0.95733,1.36326,0.00023,0.00001,0.00000,0.36729,-0.03694,1.29368,0.15850,0.00000,3.14159,0.00000,A,131608.20
1.38327,57.68810483,11.97968050,57.68810483,11.97968050,13:16:08.406980,0.00768,0.00000,0.00000,-0.00105,0.00000,-0.00076,-0.00090,-0.00263,0.11200,-0.19453,0.96386,1.37300,0.00023,0.00001,0.00000,0.36729,-0.03694,1.29368,0.15850,0.00000,3.14159,0.00000,A,131608.20
1.39396,57.68810483,11.97968050,57.68810483,11.97968050,13:16:08.418070,0.00819,0.00000,0.00000,-0.00107,0.00000,-0.00153,-0.00014,0.00088,0.11675,-0.19392,0.96349,1.38363,0.00023,0.00001,0.00000,0.36730,-0.03694,1.29368,0.15850,0.00000,3.14159,0.00000,A,131608.20
1.40987,57.68810483,11.97968050,57.68810483,11.97968050,13:16:08.433548,0.01378,0.00000,0.00000,-0.00106,0.00000,0.00046,0.00108,0.00073,0.11413,-0.19233,0.96185,1.39411,0.00023,0.00001,0.00000,0.36730,-0.03694,1.39396,0.15850,0.00000,0.00000,0.00000,A,131608.30
1.42001,57.68810483,11.97968050,57.68810483,11.97968050,13:16:08.443692,0.00894,0.00000,0.00000,-0.00106,0.00000,-0.00061,0.00154,0.00134,0.11230,-0.19343,0.96130,1.40908,0.00023,0.00001,0.00000,0.36730,-0.03694,1.39396,0.15850,0.00000,0.00000,0.00000,A,131608.30
1.42976,57.68810483,11.97968050,57.68810483,11.97968050,13:16:08.453441,0.00803,0.00000,0.00000,-0.00111,0.00000,-0.00382,-0.00167,0.00118,0.11181,-0.19313,0.96227,1.41915,0.00023,0.00001,0.00000,0.36730,-0.03694,1.39396,0.15850,0.00000,0.00000,0.00000,A,131608.30
1.43926,57.68810483,11.97968050,57.68810483,11.97968050,13:16:08.462971,0.00712,0.00000,0.00000,-0.00107,0.00000,0.00290,-0.00335,-0.00080,0.11389,-0.19416,0.96118,1.42958,0.00023,0.00001,0.00000,0.36731,-0.03694,1.39396,0.15850,0.00000,0.00000,0.00000,A,131608.30
1.44947,57.68810483,11.97968050,57.68810483,11.97968050,13:16:08.473185,0.00716,0.00000,0.00000,-0.00107,0.00000,0.00015,0.00032,0.00256,0.11236,-0.19172,0.96313,1.43976,0.00023,0.00001,0.00000,0.36731,-0.03694,1.39396,0.15850,0.00000,0.00000,0.00000,A,131608.30
1.46125,57.68810483,11.97968050,57.68810483,11.97968050,13:16:08.485027,0.00876,0.00000,0.00000,-0.00108,0.00000,-0.00076,0.00184,-0.00309,0.11358,-0.19221,0.96105,1.45096,0.00023,0.00001,0.00000,0.36731,-0.03694,1.39396,0.15850,0.00000,0.00000,0.00000,A,131608.30
1.47120,57.68810483,11.97968050,57.68810483,11.97968050,13:16:08.494920,0.00814,0.00000,0.00000,-0.00109,0.00000,-0.00046,-0.00136,0.00210,0.11450,-0.19508,0.96173,1.46088,0.00023,0.00001,0.00000,0.36731,-0.03694,1.39396,0.15850,0.00000,0.00000,0.00000,A,131608.30
1.48078,57.68810483,11.97968050,57.68810483,11.97968050,13:16:08.504483,0.00733,0.00000,0.00000,-0.00108,0.00000,0.00046,0.00062,-0.00263,0.11419,-0.19184,0.96166,1.47086,0.00023,0.00001,0.00000,0.36732,-0.03694,1.39396,0.15850,0.00000,0.00000,0.00000,A,131608.30
1.49098,57.68810483,11.97968050,57.68810483,11.97968050,13:16:08.514687,0.00735,0.00000,0.00000,-0.00108,0.00000,0.00046,-0.00014,-0.00248,0.11462,-0.19319,0.96203,1.48105,0.00023,0.00001,0.00000,0.36732,-0.03694,1.39396,0.15850,0.00000,0.00000,0.00000,A,131608.30
1.50644,57.68810483,11.97968050,57.68810483,11.97968050,13:16:08.530149,0.01262,0.00000,0.00000,-0.00107,0.00000,0.00107,0.00276,-0.00263,0.11602,-0.19264,0.95953,1.49125,0.00023,0.00001,0.00000,0.36732,-0.03694,1.49098,0.15850,0.00000,0.00000,0.00000,A,131608.40
1.51532,57.68810483,11.97968050,57.68810483,11.97968050,13:16:08.539044,0.00753,0.00000,0.00000,-0.00109,0.00000,-0.00259,-0.00075,-0.00095,0.11602,-0.19526,0.96063,1.50525,0.00023,0.00001,0.00000,0.36732,-0.03694,1.49098,0.15850,0.00000,0.00000,0.00000,A,131608.40
1.52631,57.68810483,11.97968050,57.68810483,11.97968050,13:16:08.549995,0.00819,0.00000,0.00000,-0.00111,0.00000,-0.00168,-0.00060,-0.00080,0.11431,-0.19416,0.96240,1.51555,0.00023,0.00001,0.00000,0.36733,-0.03694,1.49098,0.15850,0.00000,0.00000,0.00000,A,131608.40
1.53579,57.68810483,11.97968050,57.68810483,11.97968050,13:16:08.559509,0.00748,0.00000,0.00000,-0.00111,0.00000,0.00061,0.00077,-0.00065,0.11370,-0.19374,0.96203,1.52581,0.00023,0.00001,0.00000,0.36733,-0.03694,1.49098,0.15850,0.00000,0.00000,0.00000,A,131608.40
1.54596,57.68810483,11.97968050,57.68810483,11.97968050,13:16:08.569671,0.00744,0.00000,0.00000,-0.00112,0.00000,-0.00153,-0.00182,0.00286,0.11547,-0.19471,0.96368,1.53609,0.00023,0.00001,0.00000,0.36733,-0.03694,1.49098,0.15850,0.00000,0.00000,0.00000,A,131608.40
1.55721,57.68810483,11.97968050,57.68810483,11.97968050,13:16:08.580898,0.00851,0.00000,0.00000,-0.00112,0.00000,0.00031,-0.00136,0.00317,0.11413,-0.19483,0.96215,1.54612,0.00023,0.00001,0.00000,0.36733,-0.03694,1.49098,0.15850,0.00000,0.00000,0.00000,A,131608.40
1.56681,57.68810483,11.97968050,57.68810483,11.97968050,13:16:08.590587,0.00791,0.00000,0.00000,-0.00111,0.00000,0.00183,0.00215,-0.00141,0.11523,-0.19361,0.96142,1.55632,0.00023,0.00001,0.00000,0.36734,-0.03694,1.49098,0.15850,0.00000,0.00000,0.00000,A,131608.40
1.57656,57.68810483,11.97968050,57.68810483,11.97968050,13:16:08.600275,0.00722,0.00000,0.00000,-0.00106,0.00000,0.00412,-0.00075,-0.00034,0.11486,-0.19496,0.96270,1.56676,0.00023,0.00001,0.00000,0.36734,-0.03694,1.49098,0.15850,0.00000,0.00000,0.00000,A,131608.40
1.58715,57.68810483,11.97968050,57.68810483,11.97968050,13:16:08.610832,0.00763,0.00000,0.00000,-0.00106,0.00000,0.00168,0.00276,-0.00065,0.11389,-0.19264,0.96136,1.57694,0.00023,0.00001,0.00000,0.36734,-0.03694,1.49098,0.15850,0.00000,0.00000,0.00000,A,131608.40
1.59720,57.68810483,11.97968050,57.68810483,11.97968050,13:16:08.620905,0.00749,0.00000,0.00000,-0.00105,0.00000,0.00015,0.00200,0.00134,0.11328,-0.19252,0.96069,1.58729,0.00023,0.00001,0.00000,0.36734,-0.03694,1.49098,0.15850,0.00000,0.00000,0.00000,A,131608.40
1.61258,57.68810483,11.97968050,57.68810483,11.97968050,13:16:08.636275,0.01269,0.00000,0.00000,-0.00105,0.00000,-0.00076,-0.00045,-0.00309,0.11419,-0.19258,0.96319,1.59744,0.00023,0.00001,0.00000,0.36734,-0.03694,1.59720,0.15850,0.00000,0.00000,0.00000,A,131608.50
1.62127,57.68810483,11.97968050,57.68810483,11.97968050,13:16:08.645007,0.00739,0.00000,0.00000,-0.00107,0.00000,-0.00275,-0.00182,-0.00126,0.11395,-0.19319,0.96276,1.61129,0.00023,0.00001,0.00000,0.36735,-0.03694,1.59720,0.15850,0.00000,0.00000,0.00000,A,131608.50
1.63151,57.68810483,11.97968050,57.68810483,11.97968050,13:16:08.655228,0.00746,0.00000,0.00000,-0.00109,0.00000,-0.00061,0.00291,-0.00095,0.11157,-0.19398,0.96136,1.62190,0.00023,0.00001,0.00000,0.36735,-0.03694,1.59720,0.15850,0.00000,0.00000,0.00000,A,131608.50
1.64157,57.68810483,11.97968050,57.68810483,11.97968050,13:16:08.665284,0.00732,0.00000,0.00000,-0.00107,0.00000,0.00183,0.00001,-0.00034,0.11419,-0.19325,0.96166,1.63165,0.00023,0.00001,0.00000,0.36735,-0.03694,1.59720,0.15850,0.00000,0.00000,0.00000,A,131608.50
1.65222,57.68810483,11.97968050,57.68810483,11.97968050,13:16:08.675924,0.00780,0.00000,0.00000,-0.00107,0.00000,0.00061,0.00459,-0.00111,0.11651,-0.19398,0.96252,1.64184,0.00023,0.00001,0.00000,0.36736,-0.03694,1.59720,0.15850,0.00000,0.00000,0.00000,A,131608.50
1.66195,57.68810483,11.97968050,57.68810483,11.97968050,13:16:08.685666,0.00735,0.00000,0.00000,-0.00107,0.00000,-0.00015,-0.00045,0.00485,0.11438,-0.19203,0.96112,1.65203,0.00023,0.00001,0.00000,0.36736,-0.03694,1.59720,0.15850,0.00000,0.00000,0.00000,A,131608.50
1.67234,57.68810483,11.97968050,57.68810483,11.97968050,13:16:08.696051,0.00721,0.00000,0.00000,-0.00107,0.00000,0.00015,-0.00014,-0.00019,0.11425,-0.19410,0.96398,1.66258,0.00023,0.00001,0.00000,0.36736,-0.03694,1.59720,0.15850,0.00000,0.00000,0.00000,A,131608.50
1.68292,57.68810483,11.97968050,57.68810483,11.97968050,13:16:08.706636,0.00760,0.00000,0.00000,-0.00111,0.00000,-0.00321,-0.00228,0.00012,0.11456,-0.19270,0.96295,1.67276,0.00023,0.00001,0.00000,0.36736,-0.03694,1.59720,0.15850,0.00000,0.00000,0.00000,A,131608.50
1.69289,57.68810483,11.97968050,57.68810483,11.97968050,13:16:08.716766,0.00736,0.00000,0.00000,-0.00107,0.00000,0.00397,-0.00090,0.00164,0.11431,-0.19453,0.96478,1.68293,0.00023,0.00001,0.00000,0.36736,-0.03694,1.59720,0.15850,0.00000,0.00000,0.00000,A,131608.50
1.70812,57.68810483,11.97968050,57.68810483,11.97968067,13:16:08.731825,0.01241,0.00000,0.00000,-0.00106,0.00000,0.00107,0.00001,0.00012,0.11450,-0.19245,0.96295,1.69314,0.00023,0.00001,0.00000,0.36737,-0.03694,1.69289,0.16840,0.00000,0.00000,0.00000,A,131608.60
1.71985,57.68810483,11.97968050,57.68810483,11.97968067,13:16:08.743565,0.00948,0.00000,0.00000,-0.00106,0.00000,-0.00061,0.00077,0.00180,0.11169,-0.19233,0.96264,1.70881,0.00025,0.00001,0.00000,0.37289,-0.03697,1.69289,0.16840,0.00000,0.00000,0.00000,A,131608.60
1.72978,57.68810483,11.97968050,57.68810483,11.97968067,13:16:08.753493,0.00814,0.00000,0.00000,-0.00104,0.00000,0.00336,0.00032,-0.00034,0.11517,-0.19398,0.96252,1.71906,0.00025,0.00001,0.00000,0.37289,-0.03697,1.69289,0.16840,0.00000,0.00000,0.00000,A,131608.60
1.73946,57.68810483,11.97968050,57.68810483,11.97968067,13:16:08.763167,0.00735,0.00000,0.00000,-0.00106,0.00000,-0.00275,0.00383,0.00286,0.11322,-0.19319,0.96038,1.72953,0.00025,0.00001,0.00000,0.37290,-0.03697,1.69289,0.16840,0.00000,0.00000,0.00000,A,131608.60
1.75036,57.68810483,11.97968050,57.68810483,11.97968067,13:16:08.774070,0.00808,0.00000,0.00000,-0.00106,0.00000,0.00046,0.00062,-0.00004,0.11328,-0.19300,0.96142,1.74020,0.00025,0.00001,0.00000,0.37290,-0.03697,1.69289,0.16840,0.00000,0.00000,0.00000,A,131608.60
1.75972,57.68810483,11.97968050,57.68810483,11.97968067,13:16:08.783425,0.00723,0.00000,0.00000,-0.00102,0.00000,0.00474,0.00062,0.00149,0.11590,-0.19355,0.96142,1.74991,0.00025,0.00001,0.00000,0.37290,-0.03697,1.69289,0.16840,0.00000,0.00000,0.00000,A,131608.60
1.76978,57.68810483,11.97968050,57.68810483,11.97968067,13:16:08.793494,0.00711,0.00000,0.00000,-0.00101,0.00000,0.00046,-0.00213,-0.00202,0.11285,-0.19313,0.96313,1.76010,0.00025,0.00001,0.00000,0.37290,-0.03697,1.69289,0.16840,0.00000,0.00000,0.00000,A,131608.60
1.77981,57.68810483,11.97968050,57.68810483,11.97968067,13:16:08.803515,0.00694,0.00000,0.00000,-0.00098,0.00000,0.00351,-0.00106,-0.00340,0.11523,-0.19386,0.96417,1.77029,0.00025,0.00002,0.00000,0.37291,-0.03697,1.69289,0.16840,0.00000,0.00000,0.00000,A,131608.60
1.79048,57.68810483,11.97968050,57.68810483,11.97968067,13:16:08.814186,0.00744,0.00000,0.00000,-0.00098,0.00000,0.00077,0.00230,-0.00095,0.11267,-0.19575,0.96240,1.78046,0.00025,0.00001,0.00000,0.37291,-0.03697,1.69289,0.16840,0.00000,0.00000,0.00000,A,131608.60
1.80495,57.68810483,11.97968050,57.68810483,11.97968067,13:16:08.828655,0.01172,0.00000,0.00000,-0.00098,0.00000,0.00092,0.00139,-0.00034,0.11328,-0.19496,0.96282,1.79088,0.00025,0.00001,0.00000,0.37291,-0.03697,1.79048,0.16840,0.00000,0.00000,0.00000,A,131608.70
1.81398,57.68810483,11.97968050,57.68810483,11.97968067,13:16:08.837681,0.00777,0.00000,0.00000,-0.00099,0.00000,-0.00137,0.00062,0.00057,0.11309,-0.19245,0.96093,1.80362,0.00025,0.00001,0.00000,0.37291,-0.03697,1.79048,0.16840,0.00000,0.00000,0.00000,A,131608.70
1.82451,57.68810483,11.97968050,57.68810483,11.97968067,13:16:08.848219,0.00811,0.00000,0.00000,-0.00098,0.00000,0.00015,-0.00182,-0.00034,0.11303,-0.19319,0.96234,1.81405,0.00025,0.00001,0.00000,0.37292,-0.03697,1.79048,0.16840,0.00000,0.00000,0.00000,A,131608.70
1.83392,57.68810483,11.97968050,57.68810483,11.97968067,13:16:08.857629,0.00732,0.00000,0.00000,-0.00095,0.00000,0.00336,-0.00320,-0.00172,0.11499,-0.19544,0.96288,1.82411,0.00025,0.00002,0.00000,0.37292,-0.03697,1.79048,0.16840,0.00000,0.00000,0.00000,A,131608.70
1.84387,57.68810483,11.97968050,57.68810483,11.97968067,13:16:08.867572,0.00709,0.00000,0.00000,-0.00094,0.00000,0.00031,-0.00167,-0.00126,0.11560,-0.19227,0.96380,1.83420,0.00025,0.00002,0.00000,0.37292,-0.03697,1.79048,0.16840,0.00000,0.00000,0.00000,A,131608.70
1.85437,57.68810483,11.97968050,57.68810483,11.97968067,13:16:08.878085,0.00741,0.00000,0.00000,-0.00096,0.00000,-0.00321,-0.00213,-0.00050,0.11535,-0.19410,0.96343,1.84439,0.00025,0.00001,0.00000,0.37292,-0.03697,1.79048,0.16840,0.00000,0.00000,0.00000,A,131608.70
1.86483,57.68810483,11.97968050,57.68810483,11.97968067,13:16:08.888538,0.00768,0.00000,0.00000,-0.00095,0.00000,0.00138,-0.00075,-0.00141,0.11419,-0.19428,0.96234,1.85499,0.00025,0.00001,0.00000,0.37293,-0.03697,1.79048,0.16840,0.00000,0.00000,0.00000,A,131608.70
1.87477,57.68810483,11.97968050,57.68810483,11.97968067,13:16:08.898483,0.00744,0.00000,0.00000,-0.00097,0.00000,-0.00061,-0.00243,0.00363,0.11254,-0.19380,0.96026,1.86485,0.00025,0.00001,0.00000,0.37293,-0.03697,1.79048,0.16840,0.00000,0.00000,0.00000,A,131608.70
1.88488,57.68810483,11.97968050,57.68810483,11.97968067,13:16:08.908599,0.00736,0.00000,0.00000,-0.00096,0.00000,0.00183,0.00368,-0.00233,0.11486,-0.19184,0.96343,1.87507,0.00025,0.00002,0.00000,0.37293,-0.03697,1.79048,0.16840,0.00000,0.00000,0.00000,A,131608.70
1.89510,57.68810483,11.97968050,57.68810483,11.97968067,13:16:08.918811,0.00731,0.00000,0.00000,-0.00096,0.00000,-0.00061,-0.00014,-0.00004,0.11450,-0.19392,0.96240,1.88522,0.00025,0.00002,0.00000,0.37294,-0.03697,1.79048,0.16840,0.00000,0.00000,0.00000,A,131608.70
1.91056,57.68810483,11.97968050,57.68810483,11.97968067,13:16:08.934256,0.01259,0.00000,0.00000,-0.00096,0.00000,0.00000,-0.00258,-0.00355,0.11236,-0.19227,0.96374,1.89579,0.00025,0.00002,0.00000,0.37294,-0.03697,1.89510,0.16840,0.00000,0.00000,0.00000,A,131608.80
1.92182,57.68810483,11.97968050,57.68810483,11.97968067,13:16:08.945537,0.00898,0.00000,0.00000,-0.00099,0.00000,-0.00382,-0.00075,-0.00126,0.11248,-0.19313,0.96118,1.91027,0.00025,0.00001,0.00000,0.37294,-0.03697,1.89510,0.16840,0.00000,0.00000,0.00000,A,131608.80
1.93108,57.68810483,11.97968050,57.68810483,11.97968067,13:16:08.954783,0.00787,0.00000,0.00000,-0.00098,0.00000,0.00138,0.00429,0.00057,0.11517,-0.19374,0.96087,1.92113,0.00025,0.00002,0.00000,0.37294,-0.03697,1.89510,0.16840,0.00000,0.00000,0.00000,A,131608.80
1.94099,57.68810483,11.97968050,57.68810483,11.97968067,13:16:08.964675,0.00758,0.00000,0.00000,-0.00100,0.00000,-0.00107,-0.00228,0.00149,0.11492,-0.19502,0.96362,1.93093,0.00025,0.00002,0.00000,0.37295,-0.03697,1.89510,0.16840,0.00000,0.00000,0.00000,A,131608.80
1.95111,57.68810483,11.97968050,57.68810483,11.97968067,13:16:08.974819,0.00754,0.00000,0.00000,-0.00099,0.00000,0.00046,0.00108,0.00057,0.11584,-0.19557,0.96313,1.94143,0.00025,0.00002,0.00000,0.37295,-0.03697,1.89510,0.16840,0.00000,0.00000,0.00000,A,131608.80
1.96183,57.68810483,11.97968050,57.68810483,11.97968067,13:16:08.985518,0.00806,0.00000,0.00000,-0.00099,0.00000,0.00015,0.00215,0.00256,0.11505,-0.19313,0.96075,1.95127,0.00025,0.00002,0.00000,0.37295,-0.03697,1.89510,0.16840,0.00000,0.00000,0.00000,A,131608.80
1.97128,57.68810483,11.97968050,57.68810483,11.97968067,13:16:08.995090,0.00734,0.00000,0.00000,-0.00097,0.00000,0.00183,0.00032,0.00103,0.11224,-0.19374,0.96112,1.96177,0.00025,0.00002,0.00000,0.37295,-0.03697,1.89510,0.16840,0.00000,0.00000,0.00000,A,131608.80
1.98185,57.68810483,11.97968050,57.68810483,11.97968067,13:16:09.005543,0.00754,0.00000,0.00000,-0.00094,0.00000,0.00382,0.00261,0.00149,0.11450,-0.19355,0.96227,1.97173,0.00025,0.00002,0.00000,0.37296,-0.03697,1.89510,0.16840,0.00000,0.00000,0.00000,A,131608.80
1.99270,57.68810483,11.97968050,57.68810483,11.97968067,13:16:09.016410,0.00821,0.00000,0.00000,-0.00091,0.00000,0.00306,-0.00045,0.00210,0.11688,-0.19355,0.96197,1.98240,0.00025,0.00002,0.00000,0.37296,-0.03697,1.89510,0.16840,0.00000,0.00000,0.00000,A,131608.80
2.00722,57.68810483,11.97968050,57.68810483,11.97968067,13:16:09.030929,0.01232,0.00000,0.00000,-0.00088,0.00000,0.00351,0.00383,0.00271,0.11547,-0.19355,0.96288,1.99250,0.00025,0.00002,0.00000,0.37296,-0.03697,1.99270,0.16840,0.00000,0.00000,0.00000,A,131608.90
2.01640,57.68810483,11.97968050,57.68810483,11.97968067,13:16:09.040086,0.00756,0.00000,0.00000,-0.00089,0.00000,-0.00183,0.00108,0.00073,0.11499,-0.19471,0.96349,2.00634,0.00025,0.00002,0.00000,0.37296,-0.03697,1.99270,0.16840,0.00000,0.00000,0.00000,A,131608.90
2.02729,57.68810483,11.97968050,57.68810483,11.97968067,13:16:09.051004,0.00827,0.00000,0.00000,-0.00091,0.00000,-0.00244,-0.00289,-0.00218,0.11187,-0.19428,0.96282,2.01679,0.00025,0.00002,0.00000,0.37297,-0.03697,1.99270,0.16840,0.00000,0.00000,0.00000,A,131608.90
2.03936,57.68810483,11.97968050,57.68810483,11.97968067,13:16:09.063044,0.00779,0.00000,0.00000,-0.00094,0.00000,-0.00183,-0.00152,0.00225,0.11340,-0.19252,0.96227,2.02909,0.00025,0.00002,0.00000,0.37297,-0.03697,1.99270,0.16840,0.00000,0.00000,0.00000,A,131608.90
2.04917,57.68810483,11.97968050,57.68810483,11.97968067,13:16:09.072872,0.00743,0.00000,0.00000,-0.00092,0.00000,0.00290,0.00016,-0.00309,0.11376,-0.19611,0.96191,2.03916,0.00025,0.00002,0.00000,0.37297,-0.03697,1.99270,0.16840,0.00000,0.00000,0.00000,A,131608.90
2.05953,57.68810483,11.97968050,57.68810483,11.97968067,13:16:09.083217,0.00761,0.00000,0.00000,-0.00090,0.00000,0.00077,0.00230,0.00012,0.11578,-0.19392,0.96173,2.04951,0.00025,0.00002,0.00000,0.37298,-0.03697,1.99270,0.16840,0.00000,0.00000,0.00000,A,131608.90
2.06974,57.68810483,11.97968050,57.68810483,11.97968067,13:16:09.093431,0.00766,0.00000,0.00000,-0.00092,0.00000,-0.00091,-0.00090,0.00180,0.11376,-0.19416,0.96038,2.05967,0.00025,0.00002,0.00000,0.37298,-0.03697,1.99270,0.16840,0.00000,0.00000,0.00000,A,131608.90
2.07967,57.68810483,11.97968050,57.68810483,11.97968067,13:16:09.103369,0.00741,0.00000,0.00000,-0.00093,0.00000,0.00000,0.00139,-0.00218,0.11462,-0.19447,0.96435,2.06968,0.00025,0.00002,0.00000,0.37298,-0.03697,1.99270,0.16840,0.00000,0.00000,0.00000,A,131608.90
2.09011,57.68810483,11.97968050,57.68810483,11.97968067,13:16:09.113794,0.00767,0.00000,0.00000,-0.00095,0.00000,-0.00244,0.00093,0.00195,0.11614,-0.19215,0.96447,2.07986,0.00025,0.00002,0.00000,0.37298,-0.03697,1.99270,0.16840,0.00000,0.00000,0.00000,A,131608.90
2.09970,57.68810483,11.97968050,57.68810483,11.97968067,13:16:09.123404,0.00708,0.00000,0.00000,-0.00094,0.00000,0.00153,-0.00045,0.00210,0.11474,-0.19392,0.96240,2.09004,0.00025,0.00002,0.00000,0.37299,-0.03697,1.99270,0.16840,0.00000,0.00000,0.00000,A,131608.90
2.11487,57.68810483,11.97968050,57.68810483,11.97968067,13:16:09.138561,0.01206,0.00000,0.00000,-0.00092,0.00000,0.00336,-0.00060,0.00042,0.11303,-0.19245,0.96148,2.10024,0.00025,0.00002,0.00000,0.37299,-0.03697,2.09970,0.16840,0.00000,0.00000,0.00000,A,131609.00
2.12368,57.68810483,11.97968050,57.68810483,11.97968067,13:16:09.147389,0.00739,0.00000,0.00000,-0.00090,0.00000,0.00290,-0.00167,-0.00202,0.11315,-0.19300,0.95886,2.11374,0.00025,0.00002,0.00000,0.37299,-0.03697,2.09970,0.16840,0.00000,0.00000,0.00000,A,131609.00
2.13438,57.68810483,11.97968050,57.68810483,11.97968067,13:16:09.158088,0.00790,0.00000,0.00000,-0.00090,0.00000,-0.00015,-0.00045,0.00088,0.11370,-0.19380,0.96234,2.12388,0.00025,0.00002,0.00000,0.37300,-0.03697,2.09970,0.16840,0.00000,0.00000,0.00000,A,131609.00
2.14405,57.68810483,11.97968050,57.68810483,11.97968067,13:16:09.167761,0.00738,0.00000,0.00000,-0.00090,0.00000,0.00015,0.00047,0.00118,0.11193,-0.19282,0.96496,2.13408,0.00025,0.00002,0.00000,0.37300,-0.03697,2.09970,0.16840,0.00000,0.00000,0.00000,A,131609.00
2.15412,57.68810483,11.97968050,57.68810483,11.97968067,13:16:09.177826,0.00726,0.00000,0.00000,-0.00092,0.00000,-0.00046,-0.00213,0.00073,0.11480,-0.19203,0.96459,2.14429,0.00025,0.00002,0.00000,0.37300,-0.03697,2.09970,0.16840,0.00000,0.00000,0.00000,A,131609.00
2.16464,57.68810483,11.97968050,57.68810483,11.97968067,13:16:09.188356,0.00764,0.00000,0.00000,-0.00091,0.00000,0.00168,-0.00045,-0.00141,0.11340,-0.19282,0.96240,2.15443,0.00025,0.00002,0.00000,0.37300,-0.03697,2.09970,0.16840,0.00000,0.00000,0.00000,A,131609.00
2.17492,57.68810483,11.97968050,57.68810483,11.97968067,13:16:09.198626,0.00772,0.00000,0.00000,-0.00093,0.00000,-0.00198,-0.00365,0.00393,0.11499,-0.19227,0.96203,2.16471,0.00025,0.00002,0.00000,0.37301,-0.03697,2.09970,0.16840,0.00000,0.00000,0.00000,A,131609.00
2.18531,57.68810483,11.97968050,57.68810483,11.97968067,13:16:09.209015,0.00795,0.00000,0.00000,-0.00096,0.00000,-0.00229,-0.00549,0.00393,0.11584,-0.19367,0.96191,2.17566,0.00025,0.00002,0.00000,0.37301,-0.03697,2.09970,0.16840,0.00000,0.00000,0.00000,A,131609.00
2.19501,57.68810483,11.97968050,57.68810483,11.97968067,13:16:09.218716,0.00745,0.00000,0.00000,-0.00098,0.00000,-0.00168,0.00184,0.00118,0.11486,-0.19227,0.96246,2.18496,0.00025,0.00002,0.00000,0.37301,-0.03697,2.09970,0.16840,0.00000,0.00000,0.00000,A,131609.00
2.21066,57.68810483,11.97968050,57.68810483,11.97968067,13:16:09.234365,0.01293,0.00000,0.00000,-0.00097,0.00000,0.00168,-0.00197,0.00057,0.11486,-0.19245,0.96148,2.19515,0.00025,0.00002,0.00000,0.37301,-0.03697,2.19501,0.16840,0.00000,0.00000,0.00000,A,131609.10
2.22070,57.68810483,11.97968050,57.68810483,11.97968067,13:16:09.244406,0.00785,0.00000,0.00000,-0.00097,0.00000,0.00153,-0.00258,0.00485,0.11352,-0.19526,0.96093,2.21068,0.00025,0.00002,0.00000,0.37302,-0.03697,2.19501,0.16840,0.00000,0.00000,0.00000,A,131609.10
2.23113,57.68810483,11.97968050,57.68810483,11.97968067,13:16:09.254835,0.00798,0.00000,0.00000,-0.00096,0.00000,0.00138,-0.00090,0.00241,0.11254,-0.19313,0.96136,2.22070,0.00025,0.00002,0.00000,0.37302,-0.03697,2.19501,0.16840,0.00000,0.00000,0.00000,A,131609.10
2.24882,57.68810483,11.97968050,57.68810483,11.97968067,13:16:09.272536,0.00727,0.00000,0.00000,-0.00094,0.00000,0.00229,-0.00029,-0.00095,0.11328,-0.19288,0.96349,2.23899,0.00025,0.00002,0.00000,0.37302,-0.03697,2.19501,0.16840,0.00000,0.00000,0.00000,A,131609.10
2.25985,57.68810483,11.97968050,57.68810483,11.97968067,13:16:09.283562,0.00812,0.00000,0.00000,-0.00094,0.00000,-0.00107,0.00077,0.00027,0.11553,-0.19343,0.96471,2.24961,0.00025,0.00002,0.00000,0.37303,-0.03697,2.19501,0.16840,0.00000,0.00000,0.00000,A,131609.10
2.26914,57.68810483,11.97968050,57.68810483,11.97968067,13:16:09.292847,0.00715,0.00000,0.00000,-0.00098,0.00000,-0.00321,-0.00136,0.00073,0.11492,-0.19130,0.96093,2.25958,0.00025,0.00002,0.00000,0.37303,-0.03697,2.19501,0.16840,0.00000,0.00000,0.00000,A,131609.10
2.27916,57.68810483,11.97968050,57.68810483,11.97968067,13:16:09.302868,0.00698,0.00000,0.00000,-0.00098,0.00000,-0.00122,0.00337,0.00012,0.11340,-0.19172,0.96380,2.26962,0.00025,0.00002,0.00000,0.37303,-0.03697,2.19501,0.16840,0.00000,0.00000,0.00000,A,131609.10
2.28948,57.68810483,11.97968050,57.68810483,11.97968067,13:16:09.313189,0.00711,0.00000,0.00000,-0.00096,0.00000,0.00183,-0.00075,-0.00034,0.11370,-0.19355,0.96386,2.27980,0.00025,0.00002,0.00000,0.37303,-0.03697,2.19501,0.16840,0.00000,0.00000,0.00000,A,131609.10
2.29999,57.68810483,11.97968050,57.68810483,11.97968067,13:16:09.323708,0.00736,0.00000,0.00000,-0.00097,0.00000,-0.00061,-0.00045,0.00088,0.11273,-0.19105,0.96099,2.29024,0.00025,0.00002,0.00000,0.37304,-0.03697,2.19501,0.16840,0.00000,0.00000,0.00000,A,131609.10
2.31463,57.68810483,11.97968050,57.68810483,11.97968067,13:16:09.338317,0.01180,0.00000,0.00000,-0.00101,0.00000,-0.00458,-0.00090,-0.00141,0.11450,-0.19380,0.96337,2.30041,0.00025,0.00002,0.00000,0.37304,-0.03697,2.29999,0.16840,0.00000,0.00000,0.00000,A,131609.20
2.32341,57.68810483,11.97968050,57.68810483,11.97968067,13:16:09.347122,0.00740,0.00000,0.00000,-0.00102,0.00000,0.00000,-0.00060,0.00103,0.11401,-0.19337,0.96002,2.31347,0.00025,0.00002,0.00000,0.37304,-0.03697,2.29999,0.16840,0.00000,0.00000,0.00000,A,131609.20
2.33467,57.68810483,11.97968050,57.68810483,11.97968067,13:16:09.358393,0.00847,0.00000,0.00000,-0.00100,0.00000,0.00321,-0.00106,0.00302,0.11675,-0.19453,0.96325,2.32375,0.00025,0.00002,0.00000,0.37305,-0.03697,2.29999,0.16840,0.00000,0.00000,0.00000,A,131609.20
2.34467,57.68810483,11.97968050,57.68810483,11.97968067,13:16:09.368384,0.00830,0.00000,0.00000,-0.00099,0.00000,0.00153,-0.00106,0.00042,0.11419,-0.19331,0.96343,2.33379,0.00025,0.00002,0.00000,0.37305,-0.03697,2.29999,0.16840,0.00000,0.00000,0.00000,A,131609.20
2.35443,57.68810483,11.97968050,57.68810483,11.97968067,13:16:09.378144,0.00763,0.00000,0.00000,-0.00099,0.00000,0.00077,-0.00014,-0.00156,0.11505,-0.19215,0.96191,2.34424,0.00025,0.00002,0.00000,0.37305,-0.03697,2.29999,0.16840,0.00000,0.00000,0.00000,A,131609.20
2.36507,57.68810483,11.97968050,57.68810483,11.97968067,13:16:09.388778,0.00808,0.00000,0.00000,-0.00100,0.00000,-0.00076,0.00062,0.00195,0.11291,-0.19258,0.95977,2.35537,0.00025,0.00002,0.00000,0.37305,-0.03697,2.29999,0.16840,0.00000,0.00000,0.00000,A,131609.20
2.37453,57.68810483,11.97968050,57.68810483,11.97968067,13:16:09.398233,0.00734,0.00000,0.00000,-0.00097,0.00000,0.00412,0.00154,-0.00080,0.11621,-0.19477,0.96313,2.36484,0.00025,0.00002,0.00000,0.37306,-0.03697,2.29999,0.16840,0.00000,0.00000,0.00000,A,131609.20
2.38456,57.68810483,11.97968050,57.68810483,11.97968067,13:16:09.408272,0.00719,0.00000,0.00000,-0.00099,0.00000,-0.00061,0.00383,-0.00004,0.11261,-0.19435,0.95935,2.37480,0.00025,0.00002,0.00000,0.37306,-0.03697,2.29999,0.16840,0.00000,0.00000,0.00000,A,131609.20
2.39526,57.68810483,11.97968050,57.68810483,11.97968067,13:16:09.418969,0.00740,0.00000,0.00000,-0.00101,0.00000,-0.00198,0.00016,0.00164,0.11273,-0.19331,0.96349,2.38530,0.00025,0.00002,0.00000,0.37306,-0.03697,2.29999,0.16840,0.00000,0.00000,0.00000,A,131609.20
2.41258,57.68810483,11.97968050,57.68810483,11.97968067,13:16:09.436287,0.01454,0.00000,0.00000,-0.00101,0.00000,-0.00061,0.00016,0.00317,0.11438,-0.19294,0.96429,2.39647,0.00025,0.00002,0.00000,0.37306,-0.03697,2.39526,0.16840,0.00000,0.00000,0.00000,A,131609.30
2.42244,57.68810483,11.97968050,57.68810483,11.97968067,13:16:09.446156,0.00851,0.00000,0.00000,-0.00099,0.00000,0.00321,0.00169,-0.00355,0.11370,-0.19306,0.96447,2.41226,0.00025,0.00002,0.00000,0.37307,-0.03697,2.39526,0.16840,0.00000,0.00000,0.00000,A,131609.30
2.43140,57.68810483,11.97968050,57.68810483,11.97968067,13:16:09.455216,0.00727,0.00000,0.00000,-0.00099,0.00000,-0.00030,-0.00121,0.00332,0.11492,-0.19374,0.96288,2.42153,0.00025,0.00002,0.00000,0.37307,-0.03697,2.39526,0.16840,0.00000,0.00000,0.00000,A,131609.30
2.44364,57.68810483,11.97968050,57.68810483,11.97968067,13:16:09.467356,0.00933,0.00000,0.00000,-0.00099,0.00000,0.00138,0.00047,-0.00019,0.11200,-0.19087,0.96179,2.43213,0.00025,0.00002,0.00000,0.37307,-0.03697,2.39526,0.16840,0.00000,0.00000,0.00000,A,131609.30
2.45319,57.68810483,11.97968050,57.68810483,11.97968067,13:16:09.476907,0.00816,0.00000,0.00000,-0.00101,0.00000,-0.00091,-0.00152,0.00057,0.11267,-0.19343,0.96209,2.44295,0.00025,0.00002,0.00000,0.37308,-0.03697,2.39526,0.16840,0.00000,0.00000,0.00000,A,131609.30
2.46249,57.68810483,11.97968050,57.68810483,11.97968067,13:16:09.486204,0.00727,0.00000,0.00000,-0.00101,0.00000,0.00000,0.00139,0.00286,0.11572,-0.19288,0.96484,2.45264,0.00025,0.00002,0.00000,0.37308,-0.03697,2.39526,0.16840,0.00000,0.00000,0.00000,A,131609.30
2.47361,57.68810483,11.97968050,57.68810483,11.97968067,13:16:09.497327,0.00820,0.00000,0.00000,-0.00100,0.00000,0.00031,-0.00029,-0.00065,0.11639,-0.19435,0.96234,2.46348,0.00025,0.00002,0.00000,0.37308,-0.03697,2.39526,0.16840,0.00000,0.00000,0.00000,A,131609.30
2.48316,57.68810483,11.97968050,57.68810483,11.97968067,13:16:09.506873,0.00741,0.00000,0.00000,-0.00099,0.00000,0.00153,-0.00213,0.00439,0.11468,-0.19447,0.96252,2.47333,0.00025,0.00002,0.00000,0.37308,-0.03697,2.39526,0.16840,0.00000,0.00000,0.00000,A,131609.30
2.49330,57.68810483,11.97968050,57.68810483,11.97968067,13:16:09.517010,0.00735,0.00000,0.00000,-0.00100,0.00000,-0.00046,0.00062,-0.00126,0.11193,-0.19270,0.96221,2.48337,0.00025,0.00002,0.00000,0.37309,-0.03697,2.39526,0.16840,0.00000,0.00000,0.00000,A,131609.30
2.50825,57.68810483,11.97968050,57.68810483,11.97968067,13:16:09.531931,0.01214,0.00000,0.00000,-0.00103,0.00000,-0.00305,0.00001,0.00225,0.11462,-0.19306,0.96423,2.49360,0.00025,0.00002,0.00000,0.37309,-0.03697,2.49330,0.16840,0.00000,0.00000,0.00000,A,131609.40
2.51690,57.68810483,11.97968050,57.68810483,11.97968067,13:16:09.540601,0.00736,0.00000,0.00000,-0.00104,0.00000,-0.00137,-0.00152,-0.00111,0.11438,-0.19197,0.96435,2.50701,0.00025,0.00002,0.00000,0.37309,-0.03697,2.49330,0.16840,0.00000,0.00000,0.00000,A,131609.40
2.52693,57.68810483,11.97968050,57.68810483,11.97968067,13:16:09.550644,0.00713,0.00000,0.00000,-0.00103,0.00000,0.00183,-0.00075,0.00149,0.11450,-0.19404,0.96471,2.51724,0.00025,0.00002,0.00000,0.37309,-0.03697,2.49330,0.16840,0.00000,0.00000,0.00000,A,131609.40
2.53703,57.68810483,11.97968050,57.68810483,11.97968067,13:16:09.560737,0.00705,0.00000,0.00000,-0.00104,0.00000,-0.00183,0.00261,0.00057,0.11596,-0.19447,0.96374,2.52741,0.00025,0.00002,0.00000,0.37310,-0.03697,2.49330,0.16840,0.00000,0.00000,0.00000,A,131609.40
2.54806,57.68810483,11.97968050,57.68810483,11.97968067,13:16:09.571777,0.00789,0.00000,0.00000,-0.00103,0.00000,0.00092,0.00123,0.00073,0.11395,-0.19337,0.96386,2.53834,0.00025,0.00002,0.00000,0.37310,-0.03697,2.49330,0.16840,0.00000,0.00000,0.00000,A,131609.40
2.55879,57.68810483,11.97968050,57.68810483,11.97968067,13:16:09.582505,0.00722,0.00000,0.00000,-0.00099,0.00000,0.00443,-0.00197,0.00256,0.11364,-0.19264,0.96520,2.54914,0.00025,0.00002,0.00000,0.37310,-0.03697,2.49330,0.16840,0.00000,0.00000,0.00000,A,131609.40
2.56897,57.68810483,11.97968050,57.68810483,11.97968067,13:16:09.592682,0.00723,0.00000,0.00000,-0.00097,0.00000,0.00199,0.00032,0.00012,0.11248,-0.19197,0.96160,2.55926,0.00025,0.00002,0.00000,0.37311,-0.03697,2.49330,0.16840,0.00000,0.00000,0.00000,A,131609.40
2.57916,57.68810483,11.97968050,57.68810483,11.97968067,13:16:09.602870,0.00724,0.00000,0.00000,-0.00098,0.00000,-0.00091,0.00108,-0.00080,0.11401,-0.19282,0.96319,2.56936,0.00025,0.00002,0.00000,0.37311,-0.03697,2.49330,0.16840,0.00000,0.00000,0.00000,A,131609.40
2.58943,57.68810483,11.97968050,57.68810483,11.97968067,13:16:09.613142,0.00733,0.00000,0.00000,-0.00100,0.00000,-0.00214,-0.00167,-0.00019,0.11334,-0.19258,0.96185,2.57953,0.00025,0.00002,0.00000,0.37311,-0.03697,2.49330,0.16840,0.00000,0.00000,0.00000,A,131609.40
2.59974,57.68810483,11.97968050,57.68810483,11.97968067,13:16:09.623448,0.00747,0.00000,0.00000,-0.00095,0.00000,0.00565,-0.00029,-0.00156,0.11303,-0.19111,0.96173,2.58969,0.00025,0.00002,0.00000,0.37311,-0.03697,2.49330,0.16840,0.00000,0.00000,0.00000,A,131609.40
2.61438,57.68810483,11.97968050,57.68810483,11.97968067,13:16:09.638067,0.01194,0.00000,0.00000,-0.00093,0.00000,0.00199,0.00077,0.00118,0.11139,-0.19325,0.96118,2.59987,0.00025,0.00002,0.00000,0.37312,-0.03697,2.59974,0.16840,0.00000,0.00000,0.00000,A,131609.50
2.62305,57.68810483,11.97968050,57.68810483,11.97968067,13:16:09.646762,0.00737,0.00000,0.00000,-0.00095,0.00000,-0.00229,0.00047,0.00134,0.11474,-0.19441,0.96160,2.61311,0.00025,0.00002,0.00000,0.37312,-0.03697,2.59974,0.16840,0.00000,0.00000,0.00000,A,131609.50
2.63376,57.68810483,11.97968050,57.68810483,11.97968067,13:16:09.657473,0.00791,0.00000,0.00000,-0.00092,0.00000,0.00229,0.00291,0.00103,0.11657,-0.19374,0.96258,2.62370,0.00025,0.00002,0.00000,0.37312,-0.03697,2.59974,0.16840,0.00000,0.00000,0.00000,A,131609.50
2.64450,57.68810483,11.97968050,57.68810483,11.97968067,13:16:09.668184,0.00846,0.00000,0.00000,-0.00090,0.00000,0.00290,-0.00090,-0.00248,0.11303,-0.19349,0.96270,2.63363,0.00025,0.00002,0.00000,0.37312,-0.03697,2.59974,0.16840,0.00000,0.00000,0.00000,A,131609.50
2.65422,57.68810483,11.97968050,57.68810483,11.97968067,13:16:09.677932,0.00778,0.00000,0.00000,-0.00091,0.00000,0.00031,0.00215,-0.00111,0.11328,-0.19337,0.96057,2.64386,0.00025,0.00002,0.00000,0.37313,-0.03697,2.59974,0.16840,0.00000,0.00000,0.00000,A,131609.50
2.66419,57.68810483,11.97968050,57.68810483,11.97968067,13:16:09.687897,0.00758,0.00000,0.00000,-0.00090,0.00000,0.00031,0.00154,0.00348,0.11450,-0.19337,0.96539,2.65445,0.00025,0.00002,0.00000,0.37313,-0.03697,2.59974,0.16840,0.00000,0.00000,0.00000,A,131609.50
2.67404,57.68810483,11.97968050,57.68810483,11.97968067,13:16:09.697749,0.00724,0.00000,0.00000,-0.00089,0.00000,0.00153,0.00093,0.00180,0.11254,-0.19489,0.96166,2.66439,0.00025,0.00002,0.00000,0.37313,-0.03697,2.59974,0.16840,0.00000,0.00000,0.00000,A,131609.50
2.68454,57.68810483,11.97968050,57.68810483,11.97968067,13:16:09.708252,0.00756,0.00000,0.00000,-0.00090,0.00000,-0.00015,-0.00121,0.00195,0.11389,-0.19526,0.96331,2.67440,0.00025,0.00002,0.00000,0.37313,-0.03697,2.59974,0.16840,0.00000,0.00000,0.00000,A,131609.50
2.69455,57.68810483,11.97968050,57.68810483,11.97968067,13:16:09.718258,0.00738,0.00000,0.00000,-0.00090,0.00000,0.00153,0.00016,-0.00034,0.11444,-0.19428,0.96221,2.68460,0.00025,0.00002,0.00000,0.37314,-0.03697,2.59974,0.16840,0.00000,0.00000,0.00000,A,131609.50
2.70905,57.68810483,11.97968050,57.68810483,11.97968067,13:16:09.732757,0.01157,0.00000,0.00000,-0.00088,0.00000,0.00244,0.00016,-0.00294,0.11267,-0.19361,0.96581,2.69492,0.00025,0.00002,0.00000,0.37314,-0.03697,2.69455,0.16840,0.00000,0.00000,0.00000,A,131609.60
2.71753,57.68810483,11.97968050,57.68810483,11.97968067,13:16:09.741245,0.00722,0.00000,0.00000,-0.00087,0.00000,0.00092,0.00215,0.00057,0.11315,-0.19300,0.95990,2.70781,0.00025,0.00002,0.00000,0.37314,-0.03697,2.69455,0.16840,0.00000,0.00000,0.00000,A,131609.60
2.72790,57.68810483,11.97968050,57.68810483,11.97968067,13:16:09.751608,0.00739,0.00000,0.00000,-0.00087,0.00000,-0.00015,0.00032,0.00241,0.11700,-0.19398,0.96618,2.71805,0.00025,0.00002,0.00000,0.37315,-0.03697,2.69455,0.16840,0.00000,0.00000,0.00000,A,131609.60
2.73791,57.68810483,11.97968050,57.68810483,11.97968067,13:16:09.761621,0.00722,0.00000,0.00000,-0.00088,0.00000,0.00107,0.00612,-0.00263,0.11376,-0.19343,0.96148,2.72821,0.00025,0.00002,0.00000,0.37315,-0.03697,2.69455,0.16840,0.00000,0.00000,0.00000,A,131609.60
2.75021,57.68810483,11.97968050,57.68810483,11.97968067,13:16:09.773915,0.00934,0.00000,0.00000,-0.00085,0.00000,0.00474,0.00398,-0.00187,0.11578,-0.19416,0.96258,2.73838,0.00025,0.00002,0.00000,0.37315,-0.03697,2.69455,0.16840,0.00000,0.00000,0.00000,A,131609.60
2.75974,57.68810483,11.97968050,57.68810483,11.97968067,13:16:09.783449,0.00801,0.00000,0.00000,-0.00085,0.00000,0.00092,-0.00472,0.00180,0.11370,-0.19245,0.96325,2.74914,0.00025,0.00002,0.00000,0.37315,-0.03697,2.69455,0.16840,0.00000,0.00000,0.00000,A,131609.60
2.76904,57.68810483,11.97968050,57.68810483,11.97968067,13:16:09.792747,0.00710,0.00000,0.00000,-0.00083,0.00000,0.00214,-0.00090,-0.00279,0.11346,-0.19471,0.96264,2.75952,0.00025,0.00002,0.00000,0.37316,-0.03697,2.69455,0.16840,0.00000,0.00000,0.00000,A,131609.60
2.78009,57.68810483,11.97968050,57.68810483,11.97968067,13:16:09.803796,0.00798,0.00000,0.00000,-0.00080,0.00000,0.00550,-0.00167,0.00210,0.11267,-0.19252,0.96246,2.77001,0.00025,0.00003,0.00000,0.37316,-0.03697,2.69455,0.16840,0.00000,0.00000,0.00000,A,131609.60
2.78969,57.68810483,11.97968050,57.68810483,11.97968067,13:16:09.813398,0.00740,0.00000,0.00000,-0.00075,0.00000,0.00458,-0.00121,-0.00126,0.11315,-0.19282,0.96410,2.77981,0.00025,0.00003,0.00000,0.37316,-0.03697,2.69455,0.16840,0.00000,0.00000,0.00000,A,131609.60
2.79983,57.68810483,11.97968050,57.68810483,11.97968067,13:16:09.823542,0.00737,0.00000,0.00000,-0.00075,0.00000,0.00290,-0.00075,0.00012,0.11346,-0.19355,0.96136,2.79033,0.00025,0.00003,0.00000,0.37316,-0.03697,2.69455,0.16840,0.00000,0.00000,0.00000,A,131609.60
2.81449,57.68810483,11.97968050,57.68810483,11.97968067,13:16:09.838331,0.01184,0.00000,0.00000,-0.00074,0.00000,0.00046,-0.00243,-0.00095,0.11486,-0.19428,0.96490,2.80005,0.00025,0.00003,0.00000,0.37317,-0.03697,2.79983,0.16840,0.00000,0.00000,0.00000,A,131609.70
2.82363,57.68810483,11.97968050,57.68810483,11.97968067,13:16:09.847346,0.00755,0.00000,0.00000,-0.00075,0.00000,0.00092,-0.00182,0.00317,0.11383,-0.19166,0.96093,2.81380,0.00025,0.00003,0.00000,0.37317,-0.03697,2.79983,0.16840,0.00000,0.00000,0.00000,A,131609.70
2.83371,57.68810483,11.97968050,57.68810483,11.97968067,13:16:09.857423,0.00745,0.00000,0.00000,-0.00076,0.00000,-0.00244,-0.00167,-0.00126,0.11358,-0.19355,0.96545,2.82381,0.00025,0.00002,0.00000,0.37317,-0.03697,2.79983,0.16840,0.00000,0.00000,0.00000,A,131609.70
2.84432,57.68810483,11.97968050,57.68810483,11.97968067,13:16:09.868001,0.00788,0.00000,0.00000,-0.00076,0.00000,0.00229,-0.00197,0.00180,0.11645,-0.19410,0.96417,2.83425,0.00025,0.00002,0.00000,0.37317,-0.03697,2.79983,0.16840,0.00000,0.00000,0.00000,A,131609.70
2.85492,57.68810483,11.97968050,57.68810483,11.97968067,13:16:09.878639,0.00831,0.00000,0.00000,-0.00077,0.00000,0.00000,-0.00075,0.00286,0.11328,-0.19136,0.96142,2.84403,0.00025,0.00002,0.00000,0.37318,-0.03697,2.79983,0.16840,0.00000,0.00000,0.00000,A,131609.70
2.86451,57.68810483,11.97968050,57.68810483,11.97968067,13:16:09.888222,0.00771,0.00000,0.00000,-0.00078,0.00000,0.00015,-0.00060,0.00149,0.11303,-0.19355,0.96404,2.85423,0.00025,0.00002,0.00000,0.37318,-0.03697,2.79983,0.16840,0.00000,0.00000,0.00000,A,131609.70
2.87511,57.68810483,11.97968050,57.68810483,11.97968067,13:16:09.898794,0.00813,0.00000,0.00000,-0.00078,0.00000,0.00000,0.00230,0.00164,0.11383,-0.19282,0.96337,2.86439,0.00025,0.00002,0.00000,0.37318,-0.03697,2.79983,0.16840,0.00000,0.00000,0.00000,A,131609.70
2.88481,57.68810483,11.97968050,57.68810483,11.97968067,13:16:09.908525,0.00766,0.00000,0.00000,-0.00078,0.00000,0.00046,-0.00029,-0.00065,0.11511,-0.19306,0.96051,2.87483,0.00025,0.00003,0.00000,0.37318,-0.03697,2.79983,0.16840,0.00000,0.00000,0.00000,A,131609.70
2.89545,57.68810483,11.97968050,57.68810483,11.97968067,13:16:09.919131,0.00812,0.00000,0.00000,-0.00078,0.00000,0.00168,-0.00045,-0.00263,0.11499,-0.19355,0.96307,2.88475,0.00025,0.00003,0.00000,0.37319,-0.03697,2.79983,0.16840,0.00000,0.00000,0.00000,A,131609.70
2.90926,57.68810483,11.97968050,57.68810483,11.97968067,13:16:09.932955,0.01175,0.00000,0.00000,-0.00079,0.00000,0.00000,-0.00106,0.00042,0.11273,-0.19349,0.96093,2.89508,0.00025,0.00003,0.00000,0.37319,-0.03697,2.89545,0.16840,0.00000,0.00000,0.00000,A,131609.80
2.91790,57.68810483,11.97968050,57.68810483,11.97968067,13:16:09.941612,0.00735,0.00000,0.00000,-0.00080,0.00000,-0.00122,-0.00075,-0.00004,0.11621,-0.19191,0.96368,2.90825,0.00025,0.00003,0.00000,0.37319,-0.03697,2.89545,0.16840,0.00000,0.00000,0.00000,A,131609.80
2.92809,57.68810483,11.97968050,57.68810483,11.97968067,13:16:09.951804,0.00727,0.00000,0.00000,-0.00081,0.00000,-0.00046,0.00154,0.00073,0.11340,-0.19313,0.96075,2.91834,0.00025,0.00003,0.00000,0.37320,-0.03697,2.89545,0.16840,0.00000,0.00000,0.00000,A,131609.80
2.93811,57.68810483,11.97968050,57.68810483,11.97968067,13:16:09.961820,0.00711,0.00000,0.00000,-0.00078,0.00000,0.00336,-0.00167,-0.00248,0.11486,-0.19447,0.96465,2.92857,0.00025,0.00003,0.00000,0.37320,-0.03697,2.89545,0.16840,0.00000,0.00000,0.00000,A,131609.80
2.94862,57.68810483,11.97968050,57.68810483,11.97968067,13:16:09.972334,0.00745,0.00000,0.00000,-0.00080,0.00000,-0.00107,0.00169,0.00103,0.11285,-0.19489,0.96295,2.93911,0.00025,0.00003,0.00000,0.37320,-0.03697,2.89545,0.16840,0.00000,0.00000,0.00000,A,131609.80
2.95988,57.68810483,11.97968050,57.68810483,11.97968067,13:16:09.983584,0.00851,0.00000,0.00000,-0.00076,0.00000,0.00474,-0.00335,-0.00309,0.11212,-0.19184,0.96307,2.94888,0.00025,0.00003,0.00000,0.37320,-0.03697,2.89545,0.16840,0.00000,0.00000,0.00000,A,131609.80
2.96950,57.68810483,11.97968050,57.68810483,11.97968067,13:16:09.993211,0.00795,0.00000,0.00000,-0.00074,0.00000,0.00275,0.00154,-0.00294,0.11200,-0.19203,0.96240,2.95950,0.00025,0.00003,0.00000,0.37321,-0.03697,2.89545,0.16840,0.00000,0.00000,0.00000,A,131609.80
2.97935,57.68810483,11.97968050,57.68810483,11.97968067,13:16:10.003059,0.00715,0.00000,0.00000,-0.00073,0.00000,0.00138,-0.00060,-0.00050,0.11248,-0.19154,0.96252,2.96978,0.00025,0.00003,0.00000,0.37321,-0.03697,2.89545,0.16840,0.00000,0.00000,0.00000,A,131609.80
2.98930,57.68810483,11.97968050,57.68810483,11.97968067,13:16:10.013000,0.00692,0.00000,0.00000,-0.00072,0.00000,0.00306,-0.00121,0.00042,0.11578,-0.19325,0.96374,2.97980,0.00025,0.00003,0.00000,0.37321,-0.03697,2.89545,0.16840,0.00000,0.00000,0.00000,A,131609.80
2.99975,57.68810483,11.97968050,57.68810483,11.97968067,13:16:10.023466,0.00719,0.00000,0.00000,-0.00077,0.00000,-0.00336,-0.00182,0.00149,0.11261,-0.19428,0.96081,2.98998,0.00025,0.00003,0.00000,0.37321,-0.03697,2.89545,0.16840,0.00000,0.00000,0.00000,A,131609.80
3.01542,57.68810483,11.97968050,57.68810483,11.97968083,13:16:10.039125,0.01231,0.00000,0.00000,-0.00075,0.00000,0.00367,-0.00136,0.00103,0.11364,-0.19343,0.96173,3.00055,0.00025,0.00003,0.00000,0.37322,-0.03697,2.99975,0.17831,0.00000,0.00000,0.00000,A,131609.90
3.02638,57.68810483,11.97968050,57.68810483,11.97968083,13:16:10.050095,0.00962,0.00000,0.00000,-0.00074,0.00000,0.00199,0.00093,0.00149,0.11438,-0.19398,0.96173,3.01485,0.00027,0.00003,0.00000,0.38144,-0.03698,2.99975,0.17831,0.00000,0.00000,0.00000,A,131609.90
3.03599,57.68810483,11.97968050,57.68810483,11.97968083,13:16:10.059695,0.00820,0.00000,0.00000,-0.00075,0.00000,-0.00198,-0.00152,-0.00156,0.11407,-0.19203,0.96288,3.02570,0.00027,0.00003,0.00000,0.38145,-0.03698,2.99975,0.17831,0.00000,0.00000,0.00000,A,131609.90
3.04538,57.68810483,11.97968050,57.68810483,11.97968083,13:16:10.069090,0.00727,0.00000,0.00000,-0.00079,0.00000,-0.00321,0.00108,0.00134,0.11450,-0.19453,0.96386,3.03553,0.00027,0.00002,0.00000,0.38145,-0.03698,2.99975,0.17831,0.00000,0.00000,0.00000,A,131609.90
3.05604,57.68810483,11.97968050,57.68810483,11.97968083,13:16:10.079755,0.00775,0.00000,0.00000,-0.00080,0.00000,0.00015,-0.00090,0.00103,0.11419,-0.19282,0.96197,3.04572,0.00027,0.00002,0.00000,0.38145,-0.03698,2.99975,0.17831,0.00000,0.00000,0.00000,A,131609.90
3.06720,57.68810483,11.97968050,57.68810483,11.97968083,13:16:10.090913,0.00872,0.00000,0.00000,-0.00083,0.00000,-0.00321,0.00291,0.00042,0.11163,-0.19538,0.96404,3.05677,0.00027,0.00002,0.00000,0.38145,-0.03698,2.99975,0.17831,0.00000,0.00000,0.00000,A,131609.90
3.07651,57.68810483,11.97968050,57.68810483,11.97968083,13:16:10.100219,0.00791,0.00000,0.00000,-0.00086,0.00000,-0.00259,-0.00213,-0.00111,0.11614,-0.19343,0.96240,3.06690,0.00027,0.00002,0.00000,0.38146,-0.03698,2.99975,0.17831,0.00000,0.00000,0.00000,A,131609.90
3.08610,57.68810483,11.97968050,57.68810483,11.97968083,13:16:10.109809,0.00731,0.00000,0.00000,-0.00089,0.00000,-0.00183,0.00307,-0.00050,0.11096,-0.19117,0.96471,3.07619,0.00027,0.00002,0.00000,0.38146,-0.03698,2.99975,0.17831,0.00000,0.00000,0.00000,A,131609.90
3.09701,57.68810483,11.97968050,57.68810483,11.97968083,13:16:10.120717,0.00804,0.00000,0.00000,-0.00089,0.00000,0.00077,-0.00045,0.00210,0.11444,-0.19465,0.96118,3.08687,0.00027,0.00003,0.00000,0.38146,-0.03698,2.99975,0.17831,0.00000,0.00000,0.00000,A,131609.90
3.11120,57.68810483,11.97968050,57.68810483,11.97968083,13:16:10.134937,0.01201,0.00000,0.00000,-0.00088,0.00000,0.00229,-0.00060,0.00088,0.11236,-0.19441,0.96246,3.09677,0.00027,0.00003,0.00000,0.38147,-0.03698,3.09701,0.17831,0.00000,0.00000,0.00000,A,131610.00
3.11976,57.68810483,11.97968050,57.68810483,11.97968083,13:16:10.143476,0.00718,0.00000,0.00000,-0.00085,0.00000,0.00321,0.00383,0.00180,0.11212,-0.19313,0.96423,3.11009,0.00027,0.00003,0.00000,0.38147,-0.03698,3.09701,0.17831,0.00000,0.00000,0.00000,A,131610.00
3.13050,57.68810483,11.97968050,57.68810483,11.97968083,13:16:10.154215,0.00774,0.00000,0.00000,-0.00084,0.00000,0.00122,0.00001,-0.00187,0.11474,-0.19489,0.96179,3.12019,0.00027,0.00003,0.00000,0.38147,-0.03698,3.09701,0.17831,0.00000,0.00000,0.00000,A,131610.00
3.14036,57.68810483,11.97968050,57.68810483,11.97968083,13:16:10.164073,0.00712,0.00000,0.00000,-0.00084,0.00000,0.00046,0.00093,0.00256,0.11462,-0.19447,0.96386,3.13067,0.00027,0.00003,0.00000,0.38147,-0.03698,3.09701,0.17831,0.00000,0.00000,0.00000,A,131610.00
3.15052,57.68810483,11.97968050,57.68810483,11.97968083,13:16:10.174230,0.00709,0.00000,0.00000,-0.00083,0.00000,0.00183,0.00276,0.00042,0.11608,-0.19294,0.96264,3.14086,0.00027,0.00003,0.00000,0.38148,-0.03698,3.09701,0.17831,0.00000,0.00000,0.00000,A,131610.00
3.16230,57.68810483,11.97968050,57.68810483,11.97968083,13:16:10.186006,0.00868,0.00000,0.00000,-0.00088,0.00000,-0.00550,0.00139,-0.00324,0.11389,-0.19331,0.96508,3.15104,0.00027,0.00003,0.00000,0.38148,-0.03698,3.09701,0.17831,0.00000,0.00000,0.00000,A,131610.00
3.17100,57.68810483,11.97968050,57.68810483,11.97968083,13:16:10.194710,0.00720,0.00000,0.00000,-0.00090,0.00000,-0.00168,-0.00029,-0.00126,0.11383,-0.19294,0.96240,3.16131,0.00027,0.00003,0.00000,0.38148,-0.03698,3.09701,0.17831,0.00000,0.00000,0.00000,A,131610.00
3.18164,57.68810483,11.97968050,57.68810483,11.97968083,13:16:10.205359,0.00767,0.00000,0.00000,-0.00092,0.00000,-0.00168,0.00077,0.00180,0.11431,-0.19319,0.96203,3.17139,0.00027,0.00003,0.00000,0.38149,-0.03698,3.09701,0.17831,0.00000,0.00000,0.00000,A,131610.00
3.19152,57.68810483,11.97968050,57.68810483,11.97968083,13:16:10.215234,0.00736,0.00000,0.00000,-0.00094,0.00000,-0.00107,-0.00121,-0.00279,0.11877,-0.19325,0.96282,3.18158,0.00027,0.00003,0.00000,0.38149,-0.03698,3.09701,0.17831,0.00000,0.00000,0.00000,A,131610.00
3.20704,57.68810483,11.97968050,57.68810483,11.97968083,13:16:10.230743,0.01270,0.00000,0.00000,-0.00095,0.00000,-0.00091,-0.00029,0.00073,0.11614,-0.19410,0.96087,3.19176,0.00027,0.00003,0.00000,0.38149,-0.03698,3.19152,0.17831,0.00000,0.00000,0.00000,A,131610.10
3.21699,57.68810483,11.97968050,57.68810483,11.97968083,13:16:10.240693,0.00817,0.00000,0.00000,-0.00098,0.00000,-0.00229,0.00016,0.00332,0.11700,-0.19367,0.96008,3.20668,0.00027,0.00003,0.00000,0.38149,-0.03698,3.19152,0.17831,0.00000,0.00000,0.00000,A,131610.10
3.22660,57.68810483,11.97968050,57.68810483,11.97968083,13:16:10.250311,0.00740,0.00000,0.00000,-0.00098,0.00000,0.00061,-0.00075,-0.00050,0.11346,-0.19197,0.96417,3.21662,0.00027,0.00003,0.00000,0.38150,-0.03698,3.19152,0.17831,0.00000,0.00000,0.00000,A,131610.10
3.23674,57.68810483,11.97968050,57.68810483,11.97968083,13:16:10.260447,0.00722,0.00000,0.00000,-0.00097,0.00000,0.00107,0.00123,0.00103,0.11261,-0.19459,0.96276,3.22695,0.00027,0.00003,0.00000,0.38150,-0.03698,3.19152,0.17831,0.00000,0.00000,0.00000,A,131610.10
3.24675,57.68810483,11.97968050,57.68810483,11.97968083,13:16:10.270460,0.00704,0.00000,0.00000,-0.00097,0.00000,-0.00046,0.00230,0.00286,0.11126,-0.19361,0.96282,3.23714,0.00027,0.00003,0.00000,0.38150,-0.03698,3.19152,0.17831,0.00000,0.00000,0.00000,A,131610.10
3.25707,57.68810483,11.97968050,57.68810483,11.97968083,13:16:10.280771,0.00717,0.00000,0.00000,-0.00097,0.00000,0.00061,-0.00274,0.00241,0.11431,-0.19294,0.96441,3.24732,0.00027,0.00003,0.00000,0.38151,-0.03698,3.19152,0.17831,0.00000,0.00000,0.00000,A,131610.10
3.26851,57.68810483,11.97968050,57.68810483,11.97968083,13:16:10.292226,0.00842,0.00000,0.00000,-0.00099,0.00000,-0.00030,0.00276,-0.00050,0.11724,-0.19233,0.96410,3.25761,0.00027,0.00003,0.00000,0.38151,-0.03698,3.19152,0.17831,0.00000,0.00000,0.00000,A,131610.10
3.27953,57.68810483,11.97968050,57.68810483,11.97968083,13:16:10.303231,0.00797,0.00000,0.00000,-0.00100,0.00000,-0.00214,-0.00472,-0.00095,0.11413,-0.19392,0.96636,3.26898,0.00027,0.00003,0.00000,0.38151,-0.03698,3.19152,0.17831,0.00000,0.00000,0.00000,A,131610.10
3.28910,57.68810483,11.97968050,57.68810483,11.97968083,13:16:10.312815,0.00735,0.00000,0.00000,-0.00101,0.00000,-0.00030,0.00047,-0.00065,0.11444,-0.19374,0.96136,3.27918,0.00027,0.00003,0.00000,0.38151,-0.03698,3.19152,0.17831,0.00000,0.00000,0.00000,A,131610.10
3.29983,57.68810483,11.97968050,57.68810483,11.97968083,13:16:10.323541,0.00746,0.00000,0.00000,-0.00099,0.00000,0.00229,-0.00045,0.00225,0.11444,-0.19288,0.96154,3.29031,0.00027,0.00003,0.00000,0.38152,-0.03698,3.19152,0.17831,0.00000,0.00000,0.00000,A,131610.10
3.31441,57.68810483,11.97968050,57.68810483,11.97968083,13:16:10.338119,0.01188,0.00000,0.00000,-0.00097,0.00000,0.00336,0.00169,-0.00126,0.11352,-0.19166,0.96215,3.30018,0.00027,0.00003,0.00000,0.38152,-0.03698,3.29983,0.17831,0.00000,0.00000,0.00000,A,131610.20
3.32312,57.68810483,11.97968050,57.68810483,11.97968083,13:16:10.346838,0.00745,0.00000,0.00000,-0.00097,0.00000,0.00046,0.00032,-0.00340,0.11224,-0.19245,0.96362,3.31319,0.00027,0.00003,0.00000,0.38152,-0.03698,3.29983,0.17831,0.00000,0.00000,0.00000,A,131610.20
3.33351,57.68810483,11.97968050,57.68810483,11.97968083,13:16:10.357218,0.00763,0.00000,0.00000,-0.00098,0.00000,-0.00107,0.00016,0.00118,0.11492,-0.19178,0.96356,3.32355,0.00027,0.00003,0.00000,0.38153,-0.03698,3.29983,0.17831,0.00000,0.00000,0.00000,A,131610.20
3.34372,57.68810483,11.97968050,57.68810483,11.97968083,13:16:10.367426,0.00766,0.00000,0.00000,-0.00097,0.00000,0.00138,-0.00075,0.00073,0.11364,-0.19337,0.96404,3.33390,0.00027,0.00003,0.00000,0.38153,-0.03698,3.29983,0.17831,0.00000,0.00000,0.00000,A,131610.20
3.35360,57.68810483,11.97968050,57.68810483,11.97968083,13:16:10.377303,0.00735,0.00000,0.00000,-0.00097,0.00000,0.00122,0.00062,-0.00111,0.11376,-0.19520,0.96392,3.34365,0.00027,0.00003,0.00000,0.38153,-0.03698,3.29983,0.17831,0.00000,0.00000,0.00000,A,131610.20
3.36476,57.68810483,11.97968050,57.68810483,11.97968083,13:16:10.388475,0.00834,0.00000,0.00000,-0.00102,0.00000,-0.00504,0.00077,-0.00019,0.11657,-0.19392,0.96343,3.35384,0.00027,0.00003,0.00000,0.38153,-0.03698,3.29983,0.17831,0.00000,0.00000,0.00000,A,131610.20
3.37474,57.68810483,11.97968050,57.68810483,11.97968083,13:16:10.398448,0.00781,0.00000,0.00000,-0.00102,0.00000,0.00061,-0.00213,-0.00111,0.11334,-0.19337,0.96349,3.36487,0.00027,0.00003,0.00000,0.38154,-0.03698,3.29983,0.17831,0.00000,0.00000,0.00000,A,131610.20
3.38886,57.68810483,11.97968050,57.68810483,11.97968083,13:16:10.412569,0.00730,0.00000,0.00000,-0.00099,0.00000,0.00290,0.00062,-0.00431,0.11322,-0.19294,0.96319,3.37914,0.00027,0.00003,0.00000,0.38154,-0.03698,3.29983,0.17831,0.00000,0.00000,0.00000,A,131610.20
3.39897,57.68810483,11.97968050,57.68810483,11.97968083,13:16:10.422680,0.00724,0.00000,0.00000,-0.00102,0.00000,-0.00321,-0.00060,0.00195,0.11431,-0.19313,0.96191,3.38931,0.00027,0.00003,0.00000,0.38154,-0.03698,3.29983,0.17831,0.00000,0.00000,0.00000,A,131610.20
3.41409,57.68810483,11.97968050,57.68810483,11.97968083,13:16:10.437788,0.01218,0.00000,0.00000,-0.00103,0.00000,-0.00015,0.00062,0.00286,0.11224,-0.19361,0.96215,3.39932,0.00027,0.00003,0.00000,0.38155,-0.03698,3.39897,0.17831,0.00000,0.00000,0.00000,A,131610.30
3.42392,57.68810483,11.97968050,57.68810483,11.97968083,13:16:10.447628,0.00799,0.00000,0.00000,-0.00101,0.00000,0.00138,-0.00014,-0.00095,0.11383,-0.19441,0.96435,3.41360,0.00027,0.00003,0.00000,0.38155,-0.03698,3.39897,0.17831,0.00000,0.00000,0.00000,A,131610.30
3.43350,57.68810483,11.97968050,57.68810483,11.97968083,13:16:10.457210,0.00734,0.00000,0.00000,-0.00102,0.00000,-0.00137,0.00245,0.00073,0.11602,-0.19221,0.96356,3.42357,0.00027,0.00003,0.00000,0.38155,-0.03698,3.39897,0.17831,0.00000,0.00000,0.00000,A,131610.30
3.44410,57.68810483,11.97968050,57.68810483,11.97968083,13:16:10.467807,0.00776,0.00000,0.00000,-0.00103,0.00000,0.00000,0.00093,-0.00065,0.11370,-0.19203,0.96234,3.43374,0.00027,0.00003,0.00000,0.38156,-0.03698,3.39897,0.17831,0.00000,0.00000,0.00000,A,131610.30
3.45795,57.68810483,11.97968050,57.68810483,11.97968083,13:16:10.481665,0.01141,0.00000,0.00000,-0.00104,0.00000,-0.00091,0.00200,-0.00187,0.11364,-0.19276,0.96441,3.44396,0.00027,0.00003,0.00000,0.38156,-0.03698,3.39897,0.17831,0.00000,0.00000,0.00000,A,131610.30
3.46895,57.68810483,11.97968050,57.68810483,11.97968083,13:16:10.492627,0.00942,0.00000,0.00000,-0.00107,0.00000,-0.00351,0.00169,0.00012,0.11517,-0.19349,0.96221,3.45749,0.00027,0.00003,0.00000,0.38156,-0.03698,3.39897,0.17831,0.00000,0.00000,0.00000,A,131610.30
3.47759,57.68810483,11.97968050,57.68810483,11.97968083,13:16:10.501300,0.00744,0.00000,0.00000,-0.00104,0.00000,0.00336,-0.00106,-0.00355,0.11529,-0.19221,0.96276,3.46774,0.00027,0.00003,0.00000,0.38157,-0.03698,3.39897,0.17831,0.00000,0.00000,0.00000,A,131610.30
3.48847,57.68810483,11.97968050,57.68810483,11.97968083,13:16:10.512177,0.00814,0.00000,0.00000,-0.00106,0.00000,-0.00229,-0.00029,0.00180,0.11334,-0.19349,0.96209,3.47830,0.00027,0.00003,0.00000,0.38157,-0.03698,3.39897,0.17831,0.00000,0.00000,0.00000,A,131610.30
3.49829,57.68810483,11.97968050,57.68810483,11.97968083,13:16:10.522003,0.00765,0.00000,0.00000,-0.00105,0.00000,0.00183,0.00291,-0.00111,0.11438,-0.19380,0.96270,3.48863,0.00027,0.00003,0.00000,0.38157,-0.03698,3.39897,0.17831,0.00000,0.00000,0.00000,A,131610.30
3.51283,57.68810483,11.97968050,57.68810483,11.97968083,13:16:10.536538,0.01201,0.00000,0.00000,-0.00106,0.00000,0.00046,-0.00182,0.00103,0.11346,-0.19526,0.96356,3.49840,0.00027,0.00003,0.00000,0.38157,-0.03698,3.49829,0.17831,0.00000,0.00000,0.00000,A,131610.40
3.52157,57.68810483,11.97968050,57.68810483,11.97968083,13:16:10.545290,0.00747,0.00000,0.00000,-0.00105,0.00000,0.00015,-0.00014,-0.00004,0.11242,-0.19306,0.96478,3.51159,0.00027,0.00003,0.00000,0.38158,-0.03698,3.49829,0.17831,0.00000,0.00000,0.00000,A,131610.40
3.53177,57.68810483,11.97968050,57.68810483,11.97968083,13:16:10.555486,0.00749,0.00000,0.00000,-0.00104,0.00000,-0.00015,0.00291,0.00088,0.11505,-0.19325,0.96429,3.52183,0.00027,0.00003,0.00000,0.38158,-0.03698,3.49829,0.17831,0.00000,0.00000,0.00000,A,131610.40
3.54163,57.68810483,11.97968050,57.68810483,11.97968083,13:16:10.565337,0.00716,0.00000,0.00000,-0.00105,0.00000,-0.00137,0.00001,0.00241,0.11438,-0.19355,0.96349,3.53189,0.00027,0.00003,0.00000,0.38158,-0.03698,3.49829,0.17831,0.00000,0.00000,0.00000,A,131610.40
3.55312,57.68810483,11.97968050,57.68810483,11.97968083,13:16:10.576832,0.00847,0.00000,0.00000,-0.00109,0.00000,-0.00397,-0.00045,-0.00263,0.11248,-0.19489,0.96258,3.54205,0.00027,0.00003,0.00000,0.38159,-0.03698,3.49829,0.17831,0.00000,0.00000,0.00000,A,131610.40
3.56254,57.68810483,11.97968050,57.68810483,11.97968083,13:16:10.586245,0.00729,0.00000,0.00000,-0.00109,0.00000,0.00031,0.00093,-0.00156,0.11114,-0.19435,0.96270,3.55266,0.00027,0.00003,0.00000,0.38159,-0.03698,3.49829,0.17831,0.00000,0.00000,0.00000,A,131610.40
3.57425,57.68810483,11.97968050,57.68810483,11.97968083,13:16:10.597963,0.00882,0.00000,0.00000,-0.00107,0.00000,0.00321,0.00032,-0.00050,0.11376,-0.19380,0.96221,3.56284,0.00027,0.00003,0.00000,0.38159,-0.03698,3.49829,0.17831,0.00000,0.00000,0.00000,A,131610.40
3.58381,57.68810483,11.97968050,57.68810483,11.97968083,13:16:10.607515,0.00817,0.00000,0.00000,-0.00105,0.00000,0.00153,-0.00014,0.00180,0.11254,-0.19398,0.96173,3.57305,0.00027,0.00003,0.00000,0.38159,-0.03698,3.49829,0.17831,0.00000,0.00000,0.00000,A,131610.40
3.59336,57.68810483,11.97968050,57.68810483,11.97968083,13:16:10.617074,0.00754,0.00000,0.00000,-0.00109,0.00000,-0.00366,-0.00381,0.00118,0.11474,-0.19410,0.96209,3.58334,0.00027,0.00003,0.00000,0.38160,-0.03698,3.49829,0.17831,0.00000,0.00000,0.00000,A,131610.40
3.60957,57.68810483,11.97968050,57.68810483,11.97968100,13:16:10.633279,0.01356,0.00000,0.00000,-0.00112,0.00000,-0.00397,0.00062,0.00057,0.11560,-0.19380,0.96173,3.59393,0.00027,0.00003,0.00000,0.38160,-0.03698,3.59336,0.18822,0.00000,0.00000,0.00000,A,131610.50
3.62053,57.68810483,11.97968050,57.68810483,11.97968100,13:16:10.644234,0.00961,0.00000,0.00000,-0.00115,0.00000,-0.00198,-0.00045,0.00027,0.11346,-0.19252,0.96337,3.60932,0.00029,0.00003,0.00000,0.39083,-0.03698,3.59336,0.18822,0.00000,0.00000,0.00000,A,131610.50
3.62960,57.68810483,11.97968050,57.68810483,11.97968100,13:16:10.653310,0.00764,0.00000,0.00000,-0.00114,0.00000,0.00321,0.00169,-0.00050,0.11590,-0.19282,0.96093,3.61937,0.00029,0.00003,0.00000,0.39084,-0.03698,3.59336,0.18822,0.00000,0.00000,0.00000,A,131610.50
3.63902,57.68810483,11.97968050,57.68810483,11.97968100,13:16:10.662725,0.00689,0.00000,0.00000,-0.00114,0.00000,0.00046,0.00093,-0.00095,0.11322,-0.19435,0.96240,3.62954,0.00029,0.00003,0.00000,0.39084,-0.03698,3.59336,0.18822,0.00000,0.00000,0.00000,A,131610.50
3.65161,57.68810483,11.97968050,57.68810483,11.97968100,13:16:10.675325,0.00931,0.00000,0.00000,-0.00112,0.00000,0.00244,-0.00045,0.00012,0.11236,-0.19239,0.96349,3.63970,0.00029,0.00003,0.00000,0.39084,-0.03698,3.59336,0.18822,0.00000,0.00000,0.00000,A,131610.50
3.66120,57.68810483,11.97968050,57.68810483,11.97968100,13:16:10.684963,0.00821,0.00000,0.00000,-0.00111,0.00000,-0.00015,0.00383,0.00180,0.11334,-0.19282,0.96270,3.65141,0.00029,0.00003,0.00000,0.39084,-0.03698,3.59336,0.18822,0.00000,0.00000,0.00000,A,131610.50
3.67028,57.68810483,11.97968050,57.68810483,11.97968100,13:16:10.693986,0.00710,0.00000,0.00000,-0.00113,0.00000,-0.00275,0.00032,-0.00340,0.11224,-0.19270,0.96185,3.66062,0.00029,0.00003,0.00000,0.39085,-0.03698,3.59336,0.18822,0.00000,0.00000,0.00000,A,131610.50
3.68163,57.68810483,11.97968050,57.68810483,11.97968100,13:16:10.705346,0.00828,0.00000,0.00000,-0.00112,0.00000,0.00077,-0.00274,-0.00080,0.11462,-0.19447,0.96221,3.67104,0.00029,0.00003,0.00000,0.39085,-0.03698,3.59336,0.18822,0.00000,0.00000,0.00000,A,131610.50
3.69091,57.68810483,11.97968050,57.68810483,11.97968100,13:16:10.714620,0.00710,0.00000,0.00000,-0.00116,0.00000,-0.00351,0.00291,-0.00019,0.11584,-0.19404,0.96276,3.68123,0.00029,0.00003,0.00000,0.39085,-0.03698,3.59336,0.18822,0.00000,0.00000,0.00000,A,131610.50
3.70685,57.68810483,11.97968050,57.68810500,11.97968100,13:16:10.730545,0.01286,0.00000,0.00000,-0.00115,0.00000,0.00046,-0.00381,0.00302,0.11322,-0.19288,0.96173,3.69190,0.00029,0.00003,0.00000,0.39086,-0.03698,3.69091,0.18822,0.01853,1.57080,0.00000,A,131610.60
3.71849,57.68810483,11.97968050,57.68810500,11.97968100,13:16:10.742205,0.01044,0.00000,0.00000,-0.00117,0.00000,-0.00229,0.00032,-0.00554,0.11456,-0.19453,0.96374,3.70646,0.00032,0.00003,0.00000,0.39389,-0.02459,3.69091,0.18822,0.01853,1.57080,0.00000,A,131610.60
3.72829,57.68810483,11.97968050,57.68810500,11.97968100,13:16:10.752003,0.00764,0.00000,0.00000,-0.00113,0.00000,0.00550,0.00093,-0.00095,0.11291,-0.19282,0.96136,3.71859,0.00032,0.00003,0.00000,0.39389,-0.02459,3.69091,0.18822,0.01853,1.57080,0.00000,A,131610.60
3.73836,57.68810483,11.97968050,57.68810500,11.97968100,13:16:10.762068,0.00752,0.00000,0.00000,-0.00112,0.00000,0.00229,-0.00136,0.00149,0.11309,-0.19209,0.96270,3.72843,0.00032,0.00003,0.00000,0.39390,-0.02459,3.69091,0.18822,0.01853,1.57080,0.00000,A,131610.60
3.74892,57.68810483,11.97968050,57.68810500,11.97968100,13:16:10.772624,0.00790,0.00000,0.00000,-0.00112,0.00000,-0.00168,0.00337,0.00057,0.11517,-0.19422,0.96246,3.73940,0.00032,0.00003,0.00000,0.39390,-0.02459,3.69091,0.18822,0.01853,1.57080,0.00000,A,131610.60
3.75852,57.68810483,11.97968050,57.68810500,11.97968100,13:16:10.782233,0.00731,0.00000,0.00000,-0.00110,0.00000,0.00214,-0.00152,-0.00477,0.11230,-0.19611,0.96404,3.74871,0.00032,0.00003,0.00000,0.39390,-0.02459,3.69091,0.18822,0.01853,1.57080,0.00000,A,131610.60
3.76857,57.68810483,11.97968050,57.68810500,11.97968100,13:16:10.792281,0.00718,0.00000,0.00000,-0.00114,0.00000,-0.00504,-0.00197,0.00195,0.11370,-0.19276,0.96118,3.75889,0.00032,0.00003,0.00000,0.39391,-0.02459,3.69091,0.18822,0.01853,1.57080,0.00000,A,131610.60
3.77999,57.68810483,11.97968050,57.68810500,11.97968100,13:16:10.803708,0.00843,0.00000,0.00000,-0.00114,0.00000,-0.00030,-0.00045,-0.00111,0.11224,-0.19520,0.96630,3.76921,0.00032,0.00003,0.00000,0.39391,-0.02459,3.69091,0.18822,0.01853,1.57080,0.00000,A,131610.60
3.78990,57.68810483,11.97968050,57.68810500,11.97968100,13:16:10.813611,0.00816,0.00000,0.00000,-0.00118,0.00000,-0.00336,0.00230,-0.00202,0.11413,-0.19288,0.96203,3.77968,0.00032,0.00003,0.00000,0.39391,-0.02459,3.69091,0.18822,0.01853,1.57080,0.00000,A,131610.60
3.79917,57.68810483,11.97968050,57.68810500,11.97968100,13:16:10.822875,0.00726,0.00000,0.00000,-0.00115,0.00000,0.00183,0.00093,0.00012,0.11413,-0.19172,0.96227,3.78932,0.00032,0.00003,0.00000,0.39392,-0.02459,3.69091,0.18822,0.01853,1.57080,0.00000,A,131610.60
3.81451,57.68810483,11.97968050,57.68810483,11.97968100,13:16:10.838205,0.01243,0.00000,0.00000,-0.00114,0.00000,0.00229,-0.00121,0.00012,0.11376,-0.19361,0.96313,3.79948,0.00032,0.00003,0.00000,0.39392,-0.02459,3.79917,0.18822,0.00000,-1.57080,0.00000,A,131610.70
3.82609,57.68810483,11.97968050,57.68810483,11.97968100,13:16:10.849802,0.00943,0.00000,0.00000,-0.00114,0.00000,0.00061,-0.00350,0.00042,0.11279,-0.19410,0.96349,3.81409,0.00036,0.00003,0.00000,0.39490,-0.03289,3.79917,0.18822,0.00000,-1.57080,0.00000,A,131610.70
3.83552,57.68810483,11.97968050,57.68810483,11.97968100,13:16:10.859226,0.00804,0.00000,0.00000,-0.00116,0.00000,-0.00168,0.00062,-0.00034,0.11315,-0.19374,0.96203,3.82540,0.00036,0.00003,0.00000,0.39490,-0.03289,3.79917,0.18822,0.00000,-1.57080,0.00000,A,131610.70
3.84507,57.68810483,11.97968050,57.68810483,11.97968100,13:16:10.868780,0.00741,0.00000,0.00000,-0.00113,0.00000,0.00168,-0.00274,-0.00080,0.11553,-0.19355,0.96270,3.83524,0.00036,0.00003,0.00000,0.39491,-0.03289,3.79917,0.18822,0.00000,-1.57080,0.00000,A,131610.70
3.85570,57.68810483,11.97968050,57.68810483,11.97968100,13:16:10.879409,0.00785,0.00000,0.00000,-0.00113,0.00000,-0.00061,0.00047,-0.00172,0.11480,-0.19166,0.96197,3.84571,0.00036,0.00003,0.00000,0.39491,-0.03289,3.79917,0.18822,0.00000,-1.57080,0.00000,A,131610.70
3.86553,57.68810483,11.97968050,57.68810483,11.97968100,13:16:10.889242,0.00749,0.00000,0.00000,-0.00113,0.00000,-0.00061,-0.00243,-0.00034,0.11212,-0.19410,0.96282,3.85544,0.00036,0.00003,0.00000,0.39491,-0.03289,3.79917,0.18822,0.00000,-1.57080,0.00000,A,131610.70
3.87606,57.68810483,11.97968050,57.68810483,11.97968100,13:16:10.899771,0.00784,0.00000,0.00000,-0.00113,0.00000,0.00031,-0.00182,0.00332,0.11248,-0.19404,0.95935,3.86563,0.00036,0.00003,0.00000,0.39492,-0.03289,3.79917,0.18822,0.00000,-1.57080,0.00000,A,131610.70
3.88695,57.68810483,11.97968050,57.68810483,11.97968100,13:16:10.910656,0.00854,0.00000,0.00000,-0.00112,0.00000,0.00061,0.00139,-0.00492,0.11492,-0.19374,0.96545,3.87583,0.00036,0.00003,0.00000,0.39492,-0.03289,3.79917,0.18822,0.00000,-1.57080,0.00000,A,131610.70
3.89685,57.68810483,11.97968050,57.68810483,11.97968100,13:16:10.920560,0.00781,0.00000,0.00000,-0.00114,0.00000,-0.00137,-0.00243,0.00256,0.11352,-0.19319,0.96179,3.88688,0.00036,0.00003,0.00000,0.39493,-0.03289,3.79917,0.18822,0.00000,-1.57080,0.00000,A,131610.70
3.91286,57.68810483,11.97968050,57.68810483,11.97968100,13:16:10.936552,0.01363,0.00000,0.00000,-0.00115,0.00000,-0.00076,-0.00228,0.00118,0.11328,-0.19313,0.96417,3.89675,0.00036,0.00003,0.00000,0.39493,-0.03289,3.89685,0.18822,0.00000,0.00000,0.00000,A,131610.80
3.92133,57.68810483,11.97968050,57.68810483,11.97968100,13:16:10.945170,0.00715,0.00000,0.00000,-0.00114,0.00000,0.00015,-0.00182,-0.00111,0.11383,-0.19252,0.96295,3.91167,0.00036,0.00003,0.00000,0.39493,-0.03289,3.89685,0.18822,0.00000,0.00000,0.00000,A,131610.80
3.93196,57.68810483,11.97968050,57.68810483,11.97968100,13:16:10.955669,0.00726,0.00000,0.00000,-0.00113,0.00000,0.00107,-0.00533,0.00210,0.11309,-0.19300,0.96356,3.92212,0.00036,0.00003,0.00000,0.39494,-0.03289,3.89685,0.18822,0.00000,0.00000,0.00000,A,131610.80
3.94233,57.68810483,11.97968050,57.68810483,11.97968100,13:16:10.966041,0.00745,0.00000,0.00000,-0.00112,0.00000,0.00092,0.00245,0.00073,0.11456,-0.19477,0.96240,3.93248,0.00036,0.00003,0.00000,0.39494,-0.03289,3.89685,0.18822,0.00000,0.00000,0.00000,A,131610.80
3.95316,57.68810483,11.97968050,57.68810483,11.97968100,13:16:10.976845,0.00770,0.00000,0.00000,-0.00111,0.00000,-0.00030,0.00093,0.00149,0.11468,-0.19270,0.96313,3.94288,0.00036,0.00003,0.00000,0.39494,-0.03289,3.89685,0.18822,0.00000,0.00000,0.00000,A,131610.80
3.96289,57.68810483,11.97968050,57.68810483,11.97968100,13:16:10.986595,0.00724,0.00000,0.00000,-0.00111,0.00000,-0.00015,0.00108,0.00073,0.11486,-0.19386,0.96319,3.95306,0.00036,0.00003,0.00000,0.39495,-0.03289,3.89685,0.18822,0.00000,0.00000,0.00000,A,131610.80
3.97305,57.68810483,11.97968050,57.68810483,11.97968100,13:16:10.996757,0.00714,0.00000,0.00000,-0.00110,0.00000,0.00183,0.00413,-0.00126,0.11456,-0.19374,0.96142,3.96334,0.00036,0.00003,0.00000,0.39495,-0.03289,3.89685,0.18822,0.00000,0.00000,0.00000,A,131610.80
3.98471,57.68810483,11.97968050,57.68810483,11.97968100,13:16:11.008390,0.00861,0.00000,0.00000,-0.00107,0.00000,0.00214,0.00276,0.00149,0.11425,-0.19428,0.96173,3.97400,0.00036,0.00003,0.00000,0.39496,-0.03289,3.89685,0.18822,0.00000,0.00000,0.00000,A,131610.80
3.99574,57.68810483,11.97968050,57.68810483,11.97968100,13:16:11.019424,0.00938,0.00000,0.00000,-0.00106,0.00000,0.00122,0.00016,-0.00019,0.11444,-0.19557,0.96301,3.98512,0.00036,0.00003,0.00000,0.39496,-0.03289,3.89685,0.18822,0.00000,0.00000,0.00000,A,131610.80
4.01072,57.68810483,11.97968050,57.68810500,11.97968100,13:16:11.034399,0.01376,0.00000,0.00000,-0.00109,0.00000,-0.00305,-0.00136,0.00195,0.11486,-0.19538,0.96471,3.99437,0.00036,0.00003,0.00000,0.39496,-0.03289,3.99574,0.18822,0.01853,1.57080,0.00000,A,131610.90
4.02189,57.68810483,11.97968050,57.68810500,11.97968100,13:16:11.045800,0.00991,0.00000,0.00000,-0.00111,0.00000,-0.00214,-0.00029,0.00271,0.11340,-0.19252,0.96331,4.01049,0.00039,0.00003,0.00000,0.39524,-0.02324,3.99574,0.18822,0.01853,1.57080,0.00000,A,131610.90
4.03164,57.68810483,11.97968050,57.68810500,11.97968100,13:16:11.055328,0.00782,0.00000,0.00000,-0.00113,0.00000,-0.00076,-0.00182,0.00012,0.11480,-0.19416,0.96105,4.02165,0.00039,0.00003,0.00000,0.39525,-0.02324,3.99574,0.18822,0.01853,1.57080,0.00000,A,131610.90
4.04099,57.68810483,11.97968050,57.68810500,11.97968100,13:16:11.064694,0.00698,0.00000,0.00000,-0.00114,0.00000,-0.00061,-0.00442,0.00348,0.11370,-0.19099,0.96209,4.03147,0.00039,0.00003,0.00000,0.39525,-0.02324,3.99574,0.18822,0.01853,1.57080,0.00000,A,131610.90
4.05164,57.68810483,11.97968050,57.68810500,11.97968100,13:16:11.075318,0.00744,0.00000,0.00000,-0.00117,0.00000,-0.00412,-0.00213,-0.00233,0.11370,-0.19416,0.96526,4.04162,0.00039,0.00003,0.00000,0.39526,-0.02324,3.99574,0.18822,0.01853,1.57080,0.00000,A,131610.90
4.06157,57.68810483,11.97968050,57.68810500,11.97968100,13:16:11.085288,0.00719,0.00000,0.00000,-0.00121,0.00000,-0.00427,-0.00090,0.00393,0.11413,-0.19331,0.96429,4.05181,0.00039,0.00003,0.00000,0.39526,-0.02324,3.99574,0.18822,0.01853,1.57080,0.00000,A,131610.90
4.07199,57.68810483,11.97968050,57.68810500,11.97968100,13:16:11.095702,0.00743,0.00000,0.00000,-0.00119,0.00000,0.00214,-0.00014,0.00103,0.11297,-0.19367,0.96209,4.06214,0.00039,0.00003,0.00000,0.39526,-0.02324,3.99574,0.18822,0.01853,1.57080,0.00000,A,131610.90
4.08194,57.68810483,11.97968050,57.68810500,11.97968100,13:16:11.105659,0.00718,0.00000,0.00000,-0.00120,0.00000,-0.00091,0.00230,-0.00141,0.11352,-0.19313,0.96423,4.07222,0.00039,0.00003,0.00000,0.39527,-0.02324,3.99574,0.18822,0.01853,1.57080,0.00000,A,131610.90
4.09402,57.68810483,11.97968050,57.68810500,11.97968100,13:16:11.117735,0.00908,0.00000,0.00000,-0.00120,0.00000,-0.00137,-0.00152,-0.00233,0.11291,-0.19337,0.96270,4.08286,0.00039,0.00003,0.00000,0.39527,-0.02324,3.99574,0.18822,0.01853,1.57080,0.00000,A,131610.90
4.10892,57.68810483,11.97968050,57.68810500,11.97968100,13:16:11.132621,0.01349,0.00000,0.00000,-0.00122,0.00000,-0.00091,-0.00152,0.00042,0.11395,-0.19349,0.96478,4.09283,0.00039,0.00003,0.00000,0.39528,-0.02324,4.09402,0.18822,0.01853,0.00000,0.00000,A,131611.00
4.11839,57.68810483,11.97968050,57.68810500,11.97968100,13:16:11.142104,0.00813,0.00000,0.00000,-0.00123,0.00000,-0.00153,0.00047,-0.00111,0.11419,-0.19081,0.96160,4.10867,0.00039,0.00003,0.00000,0.39528,-0.02324,4.09402,0.18822,0.01853,0.00000,0.00000,A,131611.00
4.12821,57.68810483,11.97968050,57.68810500,11.97968100,13:16:11.151921,0.00765,0.00000,0.00000,-0.00126,0.00000,-0.00290,-0.00014,-0.00034,0.11309,-0.19337,0.96398,4.11846,0.00039,0.00003,0.00000,0.39529,-0.02324,4.09402,0.18822,0.01853,0.00000,0.00000,A,131611.00
4.13827,57.68810483,11.97968050,57.68810500,11.97968100,13:16:11.161982,0.00751,0.00000,0.00000,-0.00126,0.00000,-0.00107,0.00123,-0.00156,0.11126,-0.19660,0.96142,4.12859,0.00039,0.00003,0.00000,0.39529,-0.02324,4.09402,0.18822,0.01853,0.00000,0.00000,A,131611.00
4.14831,57.68810483,11.97968050,57.68810500,11.97968100,13:16:11.172018,0.00738,0.00000,0.00000,-0.00124,0.00000,0.00229,0.00001,-0.00065,0.11523,-0.19367,0.96173,4.13882,0.00039,0.00003,0.00000,0.39529,-0.02324,4.09402,0.18822,0.01853,0.00000,0.00000,A,131611.00
4.15871,57.68810483,11.97968050,57.68810500,11.97968100,13:16:11.182413,0.00759,0.00000,0.00000,-0.00123,0.00000,-0.00046,-0.00335,-0.00218,0.11431,-0.19300,0.96423,4.14876,0.00039,0.00003,0.00000,0.39530,-0.02324,4.09402,0.18822,0.01853,0.00000,0.00000,A,131611.00
4.16878,57.68810483,11.97968050,57.68810500,11.97968100,13:16:11.192500,0.00748,0.00000,0.00000,-0.00124,0.00000,-0.00137,0.00093,-0.00095,0.11419,-0.19191,0.96392,4.15893,0.00039,0.00003,0.00000,0.39530,-0.02324,4.09402,0.18822,0.01853,0.00000,0.00000,A,131611.00
4.17885,57.68810483,11.97968050,57.68810500,11.97968100,13:16:11.202554,0.00732,0.00000,0.00000,-0.00123,0.00000,0.00122,-0.00060,0.00042,0.11236,-0.19550,0.96301,4.16932,0.00039,0.00003,0.00000,0.39531,-0.02324,4.09402,0.18822,0.01853,0.00000,0.00000,A,131611.00
4.18910,57.68810483,11.97968050,57.68810500,11.97968100,13:16:11.212809,0.00741,0.00000,0.00000,-0.00124,0.00000,-0.00198,0.00368,0.00073,0.11181,-0.19349,0.96514,4.17922,0.00039,0.00003,0.00000,0.39531,-0.02324,4.09402,0.18822,0.01853,0.00000,0.00000,A,131611.00
4.19962,57.68810483,11.97968050,57.68810500,11.97968100,13:16:11.223333,0.00761,0.00000,0.00000,-0.00127,0.00000,-0.00489,0.00184,0.00042,0.11273,-0.19361,0.96429,4.18989,0.00039,0.00003,0.00000,0.39531,-0.02324,4.09402,0.18822,0.01853,0.00000,0.00000,A,131611.00
4.21421,57.68810483,11.97968050,57.68810500,11.97968117,13:16:11.237904,0.01202,0.00000,0.00000,-0.00123,0.00000,0.00367,-0.00060,0.00149,0.11468,-0.19313,0.96264,4.20004,0.00039,0.00003,0.00000,0.39532,-0.02324,4.19962,0.19812,0.01853,0.00000,0.00000,A,131611.10
4.22623,57.68810483,11.97968050,57.68810500,11.97968117,13:16:11.249948,0.00978,0.00000,0.00000,-0.00121,0.00000,0.00077,-0.00106,-0.00034,0.11480,-0.19294,0.96295,4.21497,0.00039,0.00003,0.00000,0.40198,-0.02006,4.19962,0.19812,0.01853,0.00000,0.00000,A,131611.10
4.23561,57.68810483,11.97968050,57.68810500,11.97968117,13:16:11.259323,0.00798,0.00000,0.00000,-0.00119,0.00000,0.00244,-0.00090,0.00118,0.11376,-0.19294,0.96478,4.22597,0.00039,0.00003,0.00000,0.40199,-0.02006,4.19962,0.19812,0.01853,0.00000,0.00000,A,131611.10
4.24544,57.68810483,11.97968050,57.68810500,11.97968117,13:16:11.269152,0.00720,0.00000,0.00000,-0.00119,0.00000,0.00046,-0.00426,0.00103,0.11273,-0.19136,0.96453,4.23582,0.00039,0.00003,0.00000,0.40199,-0.02006,4.19962,0.19812,0.01853,0.00000,0.00000,A,131611.10
4.25560,57.68810483,11.97968050,57.68810500,11.97968117,13:16:11.279315,0.00718,0.00000,0.00000,-0.00120,0.00000,-0.00198,0.00032,-0.00111,0.11261,-0.19288,0.96520,4.24596,0.00039,0.00003,0.00000,0.40199,-0.02006,4.19962,0.19812,0.01853,0.00000,0.00000,A,131611.10
4.26616,57.68810483,11.97968050,57.68810500,11.97968117,13:16:11.289870,0.00747,0.00000,0.00000,-0.00123,0.00000,-0.00214,-0.00197,0.00073,0.11474,-0.19264,0.96209,4.25621,0.00039,0.00003,0.00000,0.40200,-0.02006,4.19962,0.19812,0.01853,0.00000,0.00000,A,131611.10
4.27709,57.68810483,11.97968050,57.68810500,11.97968117,13:16:11.300799,0.00824,0.00000,0.00000,-0.00121,0.00000,0.00122,-0.00029,-0.00340,0.11431,-0.19380,0.96221,4.26677,0.00039,0.00003,0.00000,0.40200,-0.02006,4.19962,0.19812,0.01853,0.00000,0.00000,A,131611.10
4.28680,57.68810483,11.97968050,57.68810500,11.97968117,13:16:11.310515,0.00775,0.00000,0.00000,-0.00120,0.00000,0.00107,-0.00335,0.00118,0.11267,-0.19502,0.96325,4.27656,0.00039,0.00003,0.00000,0.40201,-0.02006,4.19962,0.19812,0.01853,0.00000,0.00000,A,131611.10
4.29839,57.68810483,11.97968050,57.68810500,11.97968117,13:16:11.322103,0.00915,0.00000,0.00000,-0.00119,0.00000,0.00077,-0.00029,-0.00065,0.11566,-0.19441,0.96502,4.28719,0.00039,0.00003,0.00000,0.40201,-0.02006,4.19962,0.19812,0.01853,0.00000,0.00000,A,131611.10
4.31335,57.68810483,11.97968050,57.68810500,11.97968117,13:16:11.337060,0.01357,0.00000,0.00000,-0.00118,0.00000,0.00107,-0.00228,0.00241,0.11547,-0.19520,0.96246,4.29780,0.00039,0.00003,0.00000,0.40201,-0.02006,4.29839,0.19812,0.01853,0.00000,0.00000,A,131611.20
4.32325,57.68810483,11.97968050,57.68810500,11.97968117,13:16:11.346955,0.00854,0.00000,0.00000,-0.00119,0.00000,-0.00122,-0.00182,0.00424,0.11456,-0.19502,0.96258,4.31264,0.00039,0.00003,0.00000,0.40202,-0.02006,4.29839,0.19812,0.01853,0.00000,0.00000,A,131611.20
4.33247,57.68810483,11.97968050,57.68810500,11.97968117,13:16:11.356182,0.00757,0.00000,0.00000,-0.00117,0.00000,0.00244,-0.00045,0.00103,0.11389,-0.19209,0.96203,4.32242,0.00039,0.00003,0.00000,0.40202,-0.02006,4.29839,0.19812,0.01853,0.00000,0.00000,A,131611.20
4.34319,57.68810483,11.97968050,57.68810500,11.97968117,13:16:11.366899,0.00767,0.00000,0.00000,-0.00118,0.00000,-0.00153,-0.00014,0.00012,0.11669,-0.19306,0.96429,4.33337,0.00039,0.00003,0.00000,0.40203,-0.02006,4.29839,0.19812,0.01853,0.00000,0.00000,A,131611.20
4.35327,57.68810483,11.97968050,57.68810500,11.97968117,13:16:11.376979,0.00725,0.00000,0.00000,-0.00118,0.00000,-0.00030,-0.00197,-0.00156,0.11389,-0.19386,0.96221,4.34344,0.00039,0.00003,0.00000,0.40203,-0.02006,4.29839,0.19812,0.01853,0.00000,0.00000,A,131611.20
4.36348,57.68810483,11.97968050,57.68810500,11.97968117,13:16:11.387190,0.00727,0.00000,0.00000,-0.00118,0.00000,-0.00198,0.00184,0.00057,0.11413,-0.19392,0.96502,4.35363,0.00039,0.00003,0.00000,0.40204,-0.02006,4.29839,0.19812,0.01853,0.00000,0.00000,A,131611.20
4.37361,57.68810483,11.97968050,57.68810500,11.97968117,13:16:11.397330,0.00721,0.00000,0.00000,-0.00114,0.00000,0.00397,0.00001,-0.00172,0.11438,-0.19361,0.96282,4.36387,0.00039,0.00003,0.00000,0.40204,-0.02006,4.29839,0.19812,0.01853,0.00000,0.00000,A,131611.20
4.38440,57.68810483,11.97968050,57.68810500,11.97968117,13:16:11.408108,0.00782,0.00000,0.00000,-0.00112,0.00000,0.00214,0.00139,-0.00279,0.11560,-0.19349,0.96386,4.37400,0.00039,0.00003,0.00000,0.40204,-0.02006,4.29839,0.19812,0.01853,0.00000,0.00000,A,131611.20
4.39437,57.68810483,11.97968050,57.68810500,11.97968117,13:16:11.418201,0.00759,0.00000,0.00000,-0.00111,0.00000,0.00138,-0.00167,0.00103,0.11407,-0.19306,0.96215,4.38420,0.00039,0.00003,0.00000,0.40205,-0.02006,4.29839,0.19812,0.01853,0.00000,0.00000,A,131611.20
4.41040,57.68810483,11.97968050,57.68810500,11.97968117,13:16:11.434097,0.01345,0.00000,0.00000,-0.00110,0.00000,0.00260,-0.00243,0.00103,0.11401,-0.19489,0.96356,4.39436,0.00039,0.00003,0.00000,0.40205,-0.02006,4.39437,0.19812,0.01853,0.00000,0.00000,A,131611.30
4.42044,57.68810483,11.97968050,57.68810500,11.97968117,13:16:11.444155,0.00790,0.00000,0.00000,-0.00107,0.00000,0.00290,0.00108,-0.00095,0.11291,-0.19441,0.96514,4.40998,0.00039,0.00003,0.00000,0.40206,-0.02006,4.39437,0.19812,0.01853,0.00000,0.00000,A,131611.30
4.43064,57.68810483,11.97968050,57.68810500,11.97968117,13:16:11.454344,0.00746,0.00000,0.00000,-0.00103,0.00000,0.00443,0.00154,-0.00019,0.11407,-0.19453,0.96423,4.42060,0.00039,0.00003,0.00000,0.40206,-0.02006,4.39437,0.19812,0.01853,0.00000,0.00000,A,131611.30
4.44151,57.68810483,11.97968050,57.68810500,11.97968117,13:16:11.465222,0.00815,0.00000,0.00000,-0.00102,0.00000,0.00061,-0.00045,-0.00095,0.11395,-0.19184,0.96221,4.43076,0.00039,0.00003,0.00000,0.40207,-0.02006,4.39437,0.19812,0.01853,0.00000,0.00000,A,131611.30
4.45077,57.68810483,11.97968050,57.68810500,11.97968117,13:16:11.474477,0.00710,0.00000,0.00000,-0.00101,0.00000,0.00168,0.00062,-0.00080,0.11621,-0.19264,0.96423,4.44125,0.00039,0.00003,0.00000,0.40207,-0.02006,4.39437,0.19812,0.01853,0.00000,0.00000,A,131611.30
4.46094,57.68810483,11.97968050,57.68810500,11.97968117,13:16:11.484650,0.00709,0.00000,0.00000,-0.00101,0.00000,0.00000,-0.00029,0.00027,0.11181,-0.19056,0.96160,4.45128,0.00039,0.00003,0.00000,0.40207,-0.02006,4.39437,0.19812,0.01853,0.00000,0.00000,A,131611.30
4.47132,57.68810483,11.97968050,57.68810500,11.97968117,13:16:11.495123,0.00722,0.00000,0.00000,-0.00098,0.00000,0.00458,-0.00029,0.00149,0.11456,-0.19502,0.96319,4.46153,0.00039,0.00003,0.00000,0.40208,-0.02006,4.39437,0.19812,0.01853,0.00000,0.00000,A,131611.30
4.48160,57.68810483,11.97968050,57.68810500,11.97968117,13:16:11.505326,0.00732,0.00000,0.00000,-0.00094,0.00000,0.00321,0.00200,0.00012,0.11248,-0.19069,0.96563,4.47171,0.00039,0.00003,0.00000,0.40208,-0.02006,4.39437,0.19812,0.01853,0.00000,0.00000,A,131611.30
4.49209,57.68810483,11.97968050,57.68810500,11.97968117,13:16:11.515806,0.00762,0.00000,0.00000,-0.00094,0.00000,0.00061,-0.00167,0.00271,0.11572,-0.19428,0.96142,4.48192,0.00039,0.00003,0.00000,0.40209,-0.02006,4.39437,0.19812,0.01853,0.00000,0.00000,A,131611.30
4.50775,57.68810483,11.97968050,57.68810500,11.97968133,13:16:11.531452,0.01310,0.00000,0.00000,-0.00092,0.00000,0.00107,-0.00090,-0.00065,0.11541,-0.19325,0.96301,4.49257,0.00039,0.00003,0.00000,0.40209,-0.02006,4.49209,0.20803,0.01853,0.00000,0.00000,A,131611.40
4.52011,57.68810483,11.97968050,57.68810500,11.97968133,13:16:11.543820,0.01008,0.00000,0.00000,-0.00093,0.00000,-0.00030,0.00016,-0.00172,0.11413,-0.19361,0.96246,4.50858,0.00043,0.00003,0.00000,0.41084,-0.01901,4.49209,0.20803,0.01853,0.00000,0.00000,A,131611.40
4.52972,57.68810483,11.97968050,57.68810500,11.97968133,13:16:11.553437,0.00809,0.00000,0.00000,-0.00095,0.00000,-0.00137,-0.00304,0.00180,0.11285,-0.19550,0.96301,4.51906,0.00043,0.00003,0.00000,0.41085,-0.01901,4.49209,0.20803,0.01853,0.00000,0.00000,A,131611.40
4.53982,57.68810483,11.97968050,57.68810500,11.97968133,13:16:11.563530,0.00761,0.00000,0.00000,-0.00094,0.00000,0.00138,0.00077,-0.00187,0.11102,-0.19105,0.96197,4.52962,0.00043,0.00003,0.00000,0.41085,-0.01901,4.49209,0.20803,0.01853,0.00000,0.00000,A,131611.40
4.55000,57.68810483,11.97968050,57.68810500,11.97968133,13:16:11.573711,0.00762,0.00000,0.00000,-0.00095,0.00000,-0.00015,-0.00350,0.00164,0.11352,-0.19477,0.96429,4.53980,0.00043,0.00003,0.00000,0.41086,-0.01901,4.49209,0.20803,0.01853,0.00000,0.00000,A,131611.40
4.55979,57.68810483,11.97968050,57.68810500,11.97968133,13:16:11.583499,0.00724,0.00000,0.00000,-0.00095,0.00000,0.00046,-0.00106,-0.00095,0.11285,-0.19258,0.96203,4.55007,0.00043,0.00003,0.00000,0.41086,-0.01901,4.49209,0.20803,0.01853,0.00000,0.00000,A,131611.40
4.57086,57.68810483,11.97968050,57.68810500,11.97968133,13:16:11.594569,0.00814,0.00000,0.00000,-0.00097,0.00000,-0.00122,-0.00274,0.00302,0.11352,-0.19264,0.96703,4.56066,0.00043,0.00003,0.00000,0.41086,-0.01901,4.49209,0.20803,0.01853,0.00000,0.00000,A,131611.40
4.58015,57.68810483,11.97968050,57.68810500,11.97968133,13:16:11.603855,0.00725,0.00000,0.00000,-0.00097,0.00000,-0.00061,0.00032,0.00103,0.11444,-0.19252,0.96356,4.57031,0.00043,0.00003,0.00000,0.41087,-0.01901,4.49209,0.20803,0.01853,0.00000,0.00000,A,131611.40
4.59067,57.68810483,11.97968050,57.68810500,11.97968133,13:16:11.614378,0.00751,0.00000,0.00000,-0.00094,0.00000,0.00382,-0.00075,-0.00263,0.11364,-0.19459,0.96374,4.58058,0.00043,0.00003,0.00000,0.41087,-0.01901,4.49209,0.20803,0.01853,0.00000,0.00000,A,131611.40
4.60520,57.68810483,11.97968050,57.68810500,11.97968133,13:16:11.628897,0.01186,0.00000,0.00000,-0.00092,0.00000,0.00290,0.00169,-0.00218,0.11346,-0.19264,0.96374,4.59096,0.00043,0.00003,0.00000,0.41088,-0.01901,4.59067,0.20803,0.01853,0.00000,0.00000,A,131611.50
4.61452,57.68810483,11.97968050,57.68810500,11.97968133,13:16:11.638223,0.00808,0.00000,0.00000,-0.00092,0.00000,0.00092,0.00032,-0.00218,0.11334,-0.19428,0.96191,4.60385,0.00043,0.00003,0.00000,0.41088,-0.01901,4.59067,0.20803,0.01853,0.00000,0.00000,A,131611.50
4.62399,57.68810483,11.97968050,57.68810500,11.97968133,13:16:11.647708,0.00735,0.00000,0.00000,-0.00090,0.00000,0.00153,-0.00045,-0.00050,0.11407,-0.19447,0.96252,4.61411,0.00043,0.00003,0.00000,0.41089,-0.01901,4.59067,0.20803,0.01853,0.00000,0.00000,A,131611.50
4.63401,57.68810483,11.97968050,57.68810500,11.97968133,13:16:11.657722,0.00710,0.00000,0.00000,-0.00088,0.00000,0.00244,0.00108,-0.00202,0.11523,-0.19349,0.96288,4.62434,0.00043,0.00003,0.00000,0.41089,-0.01901,4.59067,0.20803,0.01853,0.00000,0.00000,A,131611.50
4.64435,57.68810483,11.97968050,57.68810500,11.97968133,13:16:11.668060,0.00726,0.00000,0.00000,-0.00089,0.00000,-0.00030,0.00077,-0.00172,0.11431,-0.19337,0.96423,4.63451,0.00043,0.00003,0.00000,0.41090,-0.01901,4.59067,0.20803,0.01853,0.00000,0.00000,A,131611.50
4.65485,57.68810483,11.97968050,57.68810500,11.97968133,13:16:11.678562,0.00757,0.00000,0.00000,-0.00092,0.00000,-0.00305,-0.00182,-0.00386,0.11322,-0.19227,0.96173,4.64469,0.00043,0.00003,0.00000,0.41090,-0.01901,4.59067,0.20803,0.01853,0.00000,0.00000,A,131611.50
4.66484,57.68810483,11.97968050,57.68810500,11.97968133,13:16:11.688562,0.00739,0.00000,0.00000,-0.00095,0.00000,-0.00259,-0.00090,0.00454,0.11285,-0.19062,0.96368,4.65491,0.00043,0.00003,0.00000,0.41091,-0.01901,4.59067,0.20803,0.01853,0.00000,0.00000,A,131611.50
4.67532,57.68810483,11.97968050,57.68810500,11.97968133,13:16:11.699036,0.00768,0.00000,0.00000,-0.00098,0.00000,-0.00290,-0.00335,-0.00416,0.11419,-0.19416,0.96209,4.66548,0.00043,0.00003,0.00000,0.41091,-0.01901,4.59067,0.20803,0.01853,0.00000,0.00000,A,131611.50
4.68535,57.68810483,11.97968050,57.68810500,11.97968133,13:16:11.709064,0.00753,0.00000,0.00000,-0.00097,0.00000,0.00107,0.00169,0.00118,0.11254,-0.19471,0.96093,4.67525,0.00043,0.00003,0.00000,0.41091,-0.01901,4.59067,0.20803,0.01853,0.00000,0.00000,A,131611.50
4.69610,57.68810483,11.97968050,57.68810500,11.97968133,13:16:11.719812,0.00810,0.00000,0.00000,-0.00098,0.00000,0.00015,-0.00106,0.00103,0.11444,-0.19264,0.96471,4.68591,0.00043,0.00003,0.00000,0.41092,-0.01901,4.59067,0.20803,0.01853,0.00000,0.00000,A,131611.50
4.71025,57.68810483,11.97968050,57.68810500,11.97968133,13:16:11.733950,0.01206,0.00000,0.00000,-0.00097,0.00000,-0.00046,0.00230,0.00042,0.11438,-0.19136,0.96191,4.69560,0.00043,0.00003,0.00000,0.41092,-0.01901,4.69610,0.20803,0.01853,0.00000,0.00000,A,131611.60
4.71985,57.68810483,11.97968050,57.68810500,11.97968133,13:16:11.743568,0.00825,0.00000,0.00000,-0.00099,0.00000,-0.00091,-0.00029,0.00195,0.11364,-0.19294,0.96118,4.70932,0.00043,0.00003,0.00000,0.41093,-0.01901,4.69610,0.20803,0.01853,0.00000,0.00000,A,131611.60
4.72974,57.68810483,11.97968050,57.68810500,11.97968133,13:16:11.753453,0.00787,0.00000,0.00000,-0.00101,0.00000,-0.00229,-0.00152,-0.00065,0.11450,-0.19477,0.96197,4.72021,0.00043,0.00003,0.00000,0.41093,-0.01901,4.69610,0.20803,0.01853,0.00000,0.00000,A,131611.60
4.73955,57.68810483,11.97968050,57.68810500,11.97968133,13:16:11.763262,0.00752,0.00000,0.00000,-0.00101,0.00000,-0.00122,-0.00182,-0.00065,0.11261,-0.19306,0.96435,4.72954,0.00043,0.00003,0.00000,0.41094,-0.01901,4.69610,0.20803,0.01853,0.00000,0.00000,A,131611.60
4.74980,57.68810483,11.97968050,57.68810500,11.97968133,13:16:11.773507,0.00759,0.00000,0.00000,-0.00101,0.00000,-0.00122,-0.00167,-0.00004,0.11627,-0.19319,0.96288,4.73962,0.00043,0.00003,0.00000,0.41094,-0.01901,4.69610,0.20803,0.01853,0.00000,0.00000,A,131611.60
4.75997,57.68810483,11.97968050,57.68810500,11.97968133,13:16:11.783682,0.00726,0.00000,0.00000,-0.00101,0.00000,0.00092,-0.00090,-0.00187,0.11108,-0.19239,0.96520,4.75014,0.00043,0.00003,0.00000,0.41095,-0.01901,4.69610,0.20803,0.01853,0.00000,0.00000,A,131611.60
4.77008,57.68810483,11.97968050,57.68810500,11.97968133,13:16:11.793789,0.00718,0.00000,0.00000,-0.00102,0.00000,-0.00275,-0.00167,-0.00065,0.11328,-0.19428,0.96435,4.76031,0.00043,0.00003,0.00000,0.41095,-0.01901,4.69610,0.20803,0.01853,0.00000,0.00000,A,131611.60
4.78017,57.68810483,11.97968050,57.68810500,11.97968133,13:16:11.803873,0.00709,0.00000,0.00000,-0.00104,0.00000,-0.00061,0.00062,-0.00050,0.11175,-0.19184,0.96282,4.77065,0.00043,0.00003,0.00000,0.41095,-0.01901,4.69610,0.20803,0.01853,0.00000,0.00000,A,131611.60
4.79064,57.68810483,11.97968050,57.68810500,11.97968133,13:16:11.814492,0.00739,0.00000,0.00000,-0.00101,0.00000,0.00306,-0.00106,-0.00095,0.11370,-0.19294,0.96429,4.78073,0.00043,0.00003,0.00000,0.41096,-0.01901,4.69610,0.20803,0.01853,0.00000,0.00000,A,131611.60
4.80643,57.68810483,11.97968050,57.68810500,11.97968133,13:16:11.830129,0.01300,0.00000,0.00000,-0.00104,0.00000,-0.00336,-0.00304,0.00485,0.11389,-0.19264,0.96282,4.79083,0.00043,0.00003,0.00000,0.41096,-0.01901,4.79064,0.20803,0.01853,0.00000,0.00000,A,131611.70
4.81608,57.68810483,11.97968050,57.68810500,11.97968133,13:16:11.839796,0.00766,0.00000,0.00000,-0.00100,0.00000,0.00489,0.00123,-0.00340,0.11602,-0.19252,0.96331,4.80584,0.00043,0.00004,0.00000,0.41097,-0.01901,4.79064,0.20803,0.01853,0.00000,0.00000,A,131611.70
4.82637,57.68810483,11.97968050,57.68810500,11.97968133,13:16:11.850082,0.00777,0.00000,0.00000,-0.00101,0.00000,-0.00030,0.00169,-0.00309,0.11334,-0.19264,0.96069,4.81653,0.00043,0.00004,0.00000,0.41097,-0.01901,4.79064,0.20803,0.01853,0.00000,0.00000,A,131611.70
4.83884,57.68810483,11.97968050,57.68810500,11.97968133,13:16:11.862553,0.00718,0.00000,0.00000,-0.00104,0.00000,-0.00336,-0.00029,0.00042,0.11383,-0.19172,0.96258,4.82916,0.00043,0.00003,0.00000,0.41098,-0.01901,4.79064,0.20803,0.01853,0.00000,0.00000,A,131611.70
4.84896,57.68810483,11.97968050,57.68810500,11.97968133,13:16:11.872669,0.00712,0.00000,0.00000,-0.00105,0.00000,-0.00153,-0.00075,-0.00111,0.11523,-0.19313,0.96038,4.83927,0.00043,0.00003,0.00000,0.41098,-0.01901,4.79064,0.20803,0.01853,0.00000,0.00000,A,131611.70
4.85937,57.68810483,11.97968050,57.68810500,11.97968133,13:16:11.883077,0.00736,0.00000,0.00000,-0.00106,0.00000,-0.00076,-0.00075,-0.00233,0.11285,-0.19404,0.96282,4.84953,0.00043,0.00003,0.00000,0.41099,-0.01901,4.79064,0.20803,0.01853,0.00000,0.00000,A,131611.70
4.86965,57.68810483,11.97968050,57.68810500,11.97968133,13:16:11.893367,0.00737,0.00000,0.00000,-0.00105,0.00000,0.00138,-0.00152,-0.00355,0.11364,-0.19264,0.96490,4.85974,0.00043,0.00004,0.00000,0.41099,-0.01901,4.79064,0.20803,0.01853,0.00000,0.00000,A,131611.70
4.87984,57.68810483,11.97968050,57.68810500,11.97968133,13:16:11.903547,0.00737,0.00000,0.00000,-0.00102,0.00000,0.00351,-0.00228,0.00057,0.11236,-0.19282,0.96337,4.87031,0.00043,0.00004,0.00000,0.41100,-0.01901,4.79064,0.20803,0.01853,0.00000,0.00000,A,131611.70
4.89006,57.68810483,11.97968050,57.68810500,11.97968133,13:16:11.913775,0.00734,0.00000,0.00000,-0.00104,0.00000,-0.00183,-0.00029,0.00103,0.11218,-0.19398,0.96465,4.88031,0.00043,0.00004,0.00000,0.41100,-0.01901,4.79064,0.20803,0.01853,0.00000,0.00000,A,131611.70
4.90650,57.68810483,11.97968050,57.68810500,11.97968133,13:16:11.930203,0.01361,0.00000,0.00000,-0.00106,0.00000,-0.00122,0.00352,-0.00218,0.11273,-0.19587,0.96166,4.89079,0.00043,0.00004,0.00000,0.41101,-0.01901,4.89006,0.20803,0.01853,0.00000,0.00000,A,131611.80
4.91640,57.68810483,11.97968050,57.68810500,11.97968133,13:16:11.940304,0.00856,0.00000,0.00000,-0.00108,0.00000,-0.00107,-0.00243,0.00027,0.11218,-0.19465,0.96441,4.90576,0.00043,0.00004,0.00000,0.41101,-0.01901,4.89006,0.20803,0.01853,0.00000,0.00000,A,131611.80
4.92693,57.68810483,11.97968050,57.68810500,11.97968133,13:16:11.950653,0.00852,0.00000,0.00000,-0.00109,0.00000,-0.00046,0.00093,-0.00294,0.11358,-0.19294,0.96240,4.91602,0.00043,0.00004,0.00000,0.41102,-0.01901,4.89006,0.20803,0.01853,0.00000,0.00000,A,131611.80
